=~=~=~=~=~=~=~=~=~=~=~= PuTTY log 2026.05.12 16:41:28 =~=~=~=~=~=~=~=~=~=~=~=
99106,-0.95,-0.77,8.41,0.00,0.00,0.00,-3.44,-6.62,-10.25,128.44,-3.94,-8.31
99206,-0.12,-1.08,7.70,0.00,0.00,0.00,-8.25,8.12,-6.38,1BNO055 ID: 0xA0
BNO055 detected
BNO055 set to NDOF mode
DHT22: T=21.6 C | RH=66.0%
timestamp_ms,ax,ay,az,mx,my,mz,gx,gy,gz,heading,roll,pitch
3608,-0.55,0.24,9.31,0.00,0.00,0.00,-0.88,-0.25,-1.44,123.25,-2.81,1.69
DHT22: T=21.6 C | RH=66.0%
3708,-0.52,0.30,9.53,0.00,0.00,0.00,-0.25,2.38,-1.56,123.25,-3.00,1.62
3809,-0.51,0.22,9.50,0.00,0.00,0.00,3.25,3.94,-1.25,123.31,-3.25,1.81
3909,-0.58,0.38,9.53,0.00,0.00,0.00,-0.88,1.06,0.00,123.50,-3.50,2.06
4009,-0.50,0.37,9.96,0.00,0.00,0.00,2.69,-2.38,-2.88,123.62,-11.25,2.12
4107,-0.60,0.31,9.31,0.00,0.00,0.00,-6.88,5.69,-0.94,123.75,-3.62,1.75
4206,-0.72,0.23,9.18,0.00,0.00,0.00,1.69,-0.25,-2.12,124.06,-3.81,1.62
4306,-0.58,0.13,9.08,0.00,0.00,0.00,7.12,-1.81,0.06,123.94,-3.56,2.06
4406,-0.66,0.55,10.32,0.00,0.00,0.00,-1.50,11.44,-0.31,123.75,-3.88,2.44
4507,-0.79,0.09,9.79,0.00,0.00,0.00,-5.38,8.25,0.69,123.69,-4.94,1.94
4607,-0.79,0.45,8.57,0.00,0.00,0.00,-2.06,-5.88,-1.50,123.56,-4.56,1.56
4707,-0.49,0.03,11.40,0.00,0.00,0.00,-10.81,-15.06,-1.56,123.62,-4.25,0.88
4808,-0.69,-0.33,11.55,0.00,0.00,0.00,-40.50,-1.56,-3.81,123.44,-3.69,-1.69
4908,-0.49,-0.88,8.16,0.00,0.00,0.00,-31.69,-2.44,-1.12,123.50,-3.56,-5.81
5008,-0.89,-1.01,7.09,0.00,0.00,0.00,-19.56,-3.69,-11.81,124.19,-3.62,-8.00
5108,-0.72,-1.37,6.91,0.00,0.00,0.00,-0.69,-5.44,-5.19,124.31,-3.94,-9.06
5207,-0.49,-1.12,6.42,0.00,0.00,0.00,14.75,7.38,2.44,124.50,-3.38,-8.19
5306,-0.96,-1.26,9.68,0.00,0.00,0.00,28.69,53.69,19.44,123.12,-7.25,-6.81
5406,-1.72,-0.43,11.67,0.00,0.00,0.00,31.56,-26.38,6.19,122.69,-8.19,-2.50
5506,-1.43,0.10,13.13,0.00,0.00,0.00,16.75,-6.69,-8.62,122.94,-7.12,-0.81
5606,-0.78,-0.05,11.74,0.00,0.00,0.00,-1.56,-22.50,-0.94,123.06,-4.88,-0.06
5706,-0.61,-0.36,10.83,0.00,0.00,0.00,-23.12,-11.69,-0.44,122.81,-3.75,-2.31
5806,-0.38,-0.37,7.04,0.00,0.00,0.00,-27.31,-8.12,1.50,123.31,-3.50,-2.81
5906,-0.47,-0.86,7.26,0.00,0.00,0.00,-14.38,9.31,-4.25,123.06,-4.06,-5.88
6006,-0.62,-0.85,7.02,0.00,0.00,0.00,-2.75,-9.38,0.81,123.19,-3.38,-6.62
6106,-0.55,-1.09,7.42,0.00,0.00,0.00,14.75,3.06,-12.50,123.94,-3.44,-6.00
DHT22: T=21.6 C | RH=66.0%
6206,-1.01,-0.89,7.75,0.00,0.00,0.00,22.12,17.88,7.94,124.94,-5.00,-4.31
6306,-0.64,-0.27,10.57,0.00,0.00,0.00,44.44,-12.00,-0.62,124.94,-3.50,-0.81
6406,-0.63,0.05,12.09,0.00,0.00,0.00,19.81,4.56,4.00,124.50,-4.56,0.94
6506,-1.02,0.12,12.35,0.00,0.00,0.00,-5.62,5.00,1.75,124.69,-5.19,1.81
6606,-0.82,0.34,10.40,0.00,0.00,0.00,-27.88,-1.31,-4.00,124.88,-5.38,0.06
6706,-1.02,-0.83,9.64,0.00,0.00,0.00,-24.75,4.31,-12.12,125.56,-5.44,-2.38
6806,-0.69,-0.71,8.72,0.00,0.00,0.00,-33.75,4.31,-9.75,126.44,-5.56,-5.50
6906,-1.26,-1.12,7.85,0.00,0.00,0.00,-21.38,3.00,-8.25,127.19,-6.12,-8.44
7006,-0.47,-0.45,5.25,0.00,0.00,0.00,0.00,8.62,-4.62,127.94,-6.56,-9.81
7106,-1.43,-1.70,8.32,0.00,0.00,0.00,16.94,3.62,6.44,127.62,-7.31,-8.31
7206,-0.92,-0.77,8.89,0.00,0.00,0.00,26.25,-5.31,12.31,126.88,-7.12,-5.75
7306,-1.04,-0.80,10.68,0.00,0.00,0.00,29.00,-9.25,1.56,126.56,-7.00,-3.38
7406,-1.04,-0.45,11.70,0.00,0.00,0.00,2.31,-2.38,3.88,126.25,-6.00,-2.00
7506,-1.22,-0.46,11.94,0.00,0.00,0.00,2.50,2.69,2.12,125.94,-5.81,-1.44
7606,-0.97,-0.37,11.76,0.00,0.00,0.00,-18.88,-11.69,-0.12,126.00,-5.62,-2.56
7706,-0.50,-0.89,9.33,0.00,0.00,0.00,-31.50,-6.38,-8.69,126.31,-4.81,-5.25
7806,-0.78,-1.40,7.61,0.00,0.00,0.00,-18.19,1.62,-11.69,127.06,-4.69,-8.31
7906,-0.81,-1.17,6.39,0.00,0.00,0.00,-18.12,9.94,-0.88,127.81,-5.19,-10.00
8006,-0.90,-1.25,6.08,0.00,0.00,0.00,12.75,-5.00,6.75,127.69,-5.56,-9.88
8107,-0.86,-1.12,8.63,0.00,0.00,0.00,18.12,-2.38,6.62,126.88,-5.88,-8.38
8207,-0.42,-0.90,9.72,0.00,0.00,0.00,35.50,-4.06,2.75,126.69,-5.00,-4.69
8308,-0.63,-0.45,11.56,0.00,0.00,0.00,17.94,-6.06,7.31,126.31,-5.38,-2.31
8408,-1.11,-0.65,12.88,0.00,0.00,0.00,1.56,9.12,0.44,126.12,-5.88,-1.12
8508,-1.35,-0.60,12.74,0.00,0.00,0.00,-23.88,-11.19,-2.44,126.06,-5.31,-1.75
8609,-0.75,-0.60,9.73,0.00,0.00,0.00,-37.94,-6.12,-7.88,126.44,-4.06,-4.81
DHT22: T=21.6 C | RH=66.0%
8709,-0.46,-1.04,8.46,0.00,0.00,0.00,-30.38,-6.44,-9.00,127.25,-3.56,-8.12
8809,-0.60,-1.70,6.78,0.00,0.00,0.00,-21.81,7.94,-4.38,127.56,-3.69,-10.75
8908,-0.75,-1.66,6.70,0.00,0.00,0.00,-5.38,6.12,1.88,128.00,-4.62,-11.69
9006,-0.86,-1.79,7.84,0.00,0.00,0.00,14.50,-2.56,3.19,127.75,-4.69,-10.75
9106,-0.75,-1.51,8.74,0.00,0.00,0.00,34.06,3.88,2.50,127.56,-4.56,-8.12
9206,-0.67,-0.69,10.31,0.00,0.00,0.00,36.00,4.69,0.12,127.56,-5.12,-4.56
9306,-1.08,-0.79,12.12,0.00,0.00,0.00,10.50,-1.62,2.31,127.56,-5.38,-2.44
9407,-0.94,-0.77,11.75,0.00,0.00,0.00,-2.12,-10.12,0.44,127.50,-4.62,-2.25
9507,-0.79,326.97,10.97,0.00,0.00,0.00,-18.75,3.44,-3.44,127.69,-4.50,-3.56
9608,-0.67,-1.26,10.32,0.00,0.00,0.00,-34.12,-4.25,-5.50,128.06,-4.31,-6.44
9708,-0.64,-1.46,8.00,0.00,0.00,0.00,-35.44,3.44,-2.38,128.62,-3.69,-9.44
9809,-0.79,-1.67,7.60,0.00,0.00,0.00,-19.69,5.62,-5.25,129.00,-4.00,-12.06
9909,-0.56,-2.00,5.32,0.00,0.00,0.00,10.12,2.38,-5.06,129.56,-4.19,-12.44
10009,-0.90,-1.54,7.82,0.00,0.00,0.00,37.12,5.81,1.69,129.69,-4.44,-10.44
10108,-1.14,-0.90,10.18,0.00,0.00,0.00,42.31,5.81,3.06,129.75,-5.12,-6.50
10207,-0.67,-0.73,11.26,0.00,0.00,0.00,38.38,4.06,-0.12,129.88,-5.25,-2.50
10306,-0.90,-0.22,11.59,0.00,0.00,0.00,22.50,9.62,4.50,129.69,-5.94,0.25
10406,-1.21,-0.14,12.39,0.00,0.00,0.00,-13.81,2.38,2.00,129.38,-6.62,0.31
10506,-1.26,-0.50,10.94,0.00,0.00,0.00,-36.44,-5.25,0.12,129.19,-6.50,-2.38
10607,-1.20,-0.98,9.18,0.00,0.00,0.00,-37.25,-3.44,-4.56,129.25,-5.88,-6.00
10707,-0.87,-1.20,8.20,0.00,0.00,0.00,-29.62,-5.12,-4.19,129.50,-5.50,-9.56
10808,-0.94,-1.74,7.34,0.00,0.00,0.00,-12.12,4.25,-0.44,129.62,-5.62,-11.69
10908,-1.13,-2.01,6.13,0.00,0.00,0.00,7.50,-4.75,1.81,129.69,-5.75,-11.81
11009,326.89,-1.38,7.76,0.00,0.00,0.00,28.44,-3.00,0.25,129.75,-5.31,-9.75
11109,-1.24,-1.15,9.93,0.00,0.00,0.00,35.94,3.88,2.88,129.81,-5.31,-6.56
DHT22: T=21.6 C | RH=66.0%
11209,-0.67,-0.50,10.25,0.00,0.00,0.00,36.94,8.25,-1.19,130.19,-5.50,-3.62
11307,-0.96,-0.01,12.10,0.00,0.00,0.00,11.88,5.06,-0.44,130.25,-6.25,-1.25
11406,-1.04,-0.21,11.76,0.00,0.00,0.00,-4.50,-5.88,2.00,130.12,-5.94,-0.81
11506,-0.90,-0.71,10.77,0.00,0.00,0.00,-15.69,-2.75,1.94,129.81,-5.31,-2.19
11606,-1.06,-1.01,9.60,0.00,0.00,0.00,-28.25,-3.62,-1.38,129.75,-4.94,-4.56
11706,-0.89,-0.93,8.70,0.00,0.00,0.00,-29.62,-1.06,-3.81,129.94,-4.88,-7.62
11806,-0.86,-1.47,7.98,0.00,0.00,0.00,-17.44,-4.00,-4.56,130.31,-4.56,-10.00
11906,-0.57,-1.53,7.40,0.00,0.00,0.00,-3.06,3.19,-2.44,130.44,-4.81,-10.88
12006,-0.54,-1.32,7.26,0.00,0.00,0.00,10.81,-3.00,2.38,130.50,-4.88,-10.31
12106,-1.27,-1.31,9.15,0.00,0.00,0.00,20.00,-0.81,2.94,130.19,-5.06,-9.00
12206,-1.00,-1.30,9.05,0.00,0.00,0.00,26.31,4.00,4.62,129.94,-5.00,-6.69
12306,-0.55,-0.43,10.76,0.00,0.00,0.00,24.94,2.44,5.25,129.75,-5.69,-3.88
12406,-1.20,-0.49,12.21,0.00,0.00,0.00,15.12,3.50,0.81,129.44,-5.75,-1.88
12506,-1.04,-0.47,11.88,0.00,0.00,0.00,-15.50,-14.50,1.44,129.19,-5.12,-2.31
12606,-0.25,-0.94,9.39,0.00,0.00,0.00,-27.25,-3.50,2.38,129.00,-4.06,-4.50
12706,-0.98,-0.93,8.99,0.00,0.00,0.00,-25.31,-2.62,1.06,128.94,-4.00,-6.94
12806,-0.56,-0.85,7.31,0.00,0.00,0.00,-14.50,4.38,7.06,128.81,-3.50,-8.56
12906,-1.08,-1.51,7.35,0.00,0.00,0.00,-10.94,7.69,5.69,128.06,-4.75,-10.25
13006,-1.14,-1.69,7.66,0.00,0.00,0.00,11.56,3.38,0.75,127.69,-5.31,-10.19
13106,-0.21,-1.24,8.30,0.00,0.00,0.00,15.62,-4.31,3.94,127.62,-5.19,-8.62
13206,-0.80,-1.41,9.49,0.00,0.00,0.00,39.12,-24.75,4.44,126.75,-5.12,-6.56
13306,-0.60,-0.22,10.16,0.00,0.00,0.00,23.12,-7.50,9.69,126.31,-4.62,-4.06
13406,-1.66,-0.83,11.47,0.00,0.00,0.00,2.50,42.12,-1.19,125.88,-6.38,-3.25
13506,-1.69,-0.94,11.27,0.00,0.00,0.00,-8.75,6.19,17.94,125.25,-8.56,-3.81
13606,-1.09,-0.98,10.37,0.00,0.00,0.00,-4.38,37.56,-9.44,124.94,-8.25,-4.88
DHT22: T=21.6 C | RH=66.0%
13706,0.00,0.37,9.17,0.00,0.00,0.00,-3.19,-35.44,17.75,123.88,-7.00,-6.44
13806,-0.86,-1.06,7.84,0.00,0.00,0.00,-18.31,-24.31,24.94,123.56,-4.75,-5.81
13906,-0.28,-0.99,7.27,0.00,0.00,0.00,-27.06,-15.12,3.69,121.62,-1.38,-8.19
14006,-0.17,-1.03,7.21,0.00,0.00,0.00,-6.06,-55.69,-7.31,122.38,3.50,-11.06
14106,-0.17,-0.02,9.70,0.00,0.00,0.00,35.94,23.56,-2.25,122.44,1.31,-8.94
14207,0.19,-1.13,7.67,0.00,0.00,0.00,29.62,2.38,-7.56,123.31,0.62,-4.25
14307,0.21,-1.39,9.76,0.00,0.00,0.00,19.31,-16.00,0.69,123.69,2.25,-4.12
14408,1.38,0.04,12.90,0.00,0.00,0.00,1.12,-12.94,3.38,123.50,4.19,-1.06
14508,0.88,0.11,12.47,0.00,0.00,0.00,-8.62,8.56,-3.00,123.12,3.94,-0.25
14608,0.15,-0.67,10.33,0.00,0.00,0.00,-18.12,17.12,-1.31,123.19,2.69,-2.31
14709,-0.06,-0.86,9.32,0.00,0.00,0.00,-12.62,14.94,-3.62,123.44,1.25,-4.25
14809,-0.64,-0.26,9.54,0.00,0.00,0.00,-36.44,15.00,12.62,123.19,-0.44,-6.81
14909,-0.05,-0.63,6.75,0.00,0.00,0.00,17.38,20.56,-5.31,123.25,-2.81,2040.88
15008,-0.86,-0.91,6.31,0.00,0.00,0.00,-1.88,-7.62,1.75,123.31,-11.50,-6.75
15107,-0.52,-0.89,9.20,0.00,0.00,0.00,12.31,-8.31,3.00,123.25,-2.38,-6.25
15206,-0.86,-0.04,9.73,0.00,0.00,0.00,24.31,-18.12,-1.25,123.06,-1.81,-3.69
15306,-0.63,0.78,9.23,0.00,0.00,0.00,28.00,-22.69,-2.94,123.19,-0.31,-1.12
15406,0.60,-0.45,10.51,0.00,0.00,0.00,26.81,-13.56,0.31,123.50,1.44,0.62
15507,0.45,0.54,12.17,0.00,0.00,0.00,11.19,-9.75,0.94,123.31,2.62,2.44
15607,0.34,0.64,12.63,0.00,0.00,0.00,-28.62,17.31,3.06,122.94,2.44,1.75
15708,0.33,-0.79,8.91,0.00,0.00,0.00,-22.06,20.56,-1.62,123.12,0.50,-1.00
15808,-0.02,-0.78,8.32,0.00,0.00,0.00,-24.00,21.19,2.31,123.06,-1.25,-4.25
15909,-0.79,-0.94,7.13,0.00,0.00,0.00,-10.00,17.38,3.19,122.88,-3.19,-6.06
16009,-0.13,-1.40,6.31,0.00,0.00,0.00,7.31,-5.94,-1.81,122.94,-3.69,-5.94
16109,-0.38,-1.01,9.15,0.00,0.00,0.00,24.88,-3.06,11.19,122.56,-3.12,-4.00
DHT22: T=21.6 C | RH=66.0%
16208,-0.78,-0.18,9.43,0.00,0.00,0.00,40.00,-5.56,-1.75,121.94,-10.62,-1.12
16307,-0.45,0.07,9.52,0.00,0.00,0.00,19.25,-17.25,-5.25,122.25,-1.06,1.19
16406,0.31,0.13,11.25,0.00,0.00,0.00,14.69,-10.88,-3.38,122.56,0.50,2.81
16506,0.15,1.15,12.55,0.00,0.00,0.00,-0.62,5.81,0.69,122.44,1.25,3.19
16606,0.00,0.13,10.21,0.00,0.00,0.00,-22.75,11.69,-1.38,122.44,0.38,1.69
16707,-0.33,0.02,10.26,0.00,0.00,0.00,-26.69,12.75,1.56,122.38,-0.38,-0.81
16807,-0.51,-0.62,8.64,0.00,0.00,0.00,-22.44,19.38,-0.06,122.25,-2.12,-3.88
16907,-1.13,-0.26,7.37,0.00,0.00,0.00,-14.75,11.50,-0.50,122.19,-3.69,-5.38
17008,-0.59,-0.84,7.10,0.00,0.00,0.00,2.31,-3.44,-2.00,122.19,-3.81,-6.00
17108,-0.18,-1.27,8.52,0.00,0.00,0.00,21.31,-4.56,-0.38,122.31,-3.12,-4.88
17208,-1.37,-0.01,7.94,0.00,0.00,0.00,34.69,2035.44,0.44,122.25,-2.62,-2.19
17308,0.35,-0.77,9.77,0.00,0.00,0.00,19.06,-24.81,-0.12,122.62,-0.56,-0.19
17407,0.52,0.03,10.61,0.00,0.00,0.00,15.50,-20.69,1.56,122.75,1.06,1.56
17506,0.25,0.70,12.67,0.00,0.00,0.00,-3.25,3.00,2.06,122.56,1.88,2.19
17606,0.29,0.17,11.48,0.00,0.00,0.00,-22.00,10.12,-0.81,122.38,1.12,0.75
17706,-0.41,0.00,10.56,0.00,0.00,0.00,-32.06,18.00,2.75,122.25,-0.25,-2.12
17806,-0.64,-0.80,8.14,0.00,0.00,0.00,-27.19,16.69,0.12,122.06,-2.25,-5.00
17906,-0.64,-0.78,7.16,0.00,0.00,0.00,-8.69,1.75,-0.56,121.94,-3.31,-6.69
18006,-0.73,-0.79,8.21,0.00,0.00,0.00,9.12,5.25,2.56,121.81,-3.50,-6.44
18106,-0.41,-1.23,8.79,0.00,0.00,0.00,21.38,0.25,-1.81,122.00,-2.94,-5.00
18206,-0.98,-0.32,8.59,0.00,0.00,0.00,29.69,-19.31,-1.69,122.06,-2.19,-2.50
18306,0.28,0.00,10.47,0.00,0.00,0.00,21.56,-17.62,-2.44,122.31,0.00,-0.44
18406,0.04,0.64,11.43,0.00,0.00,0.00,14.44,-12.69,2.94,122.19,1.25,1.38
18506,0.06,0.56,11.61,0.00,0.00,0.00,-4.06,1.81,2.94,121.75,1.69,1.81
18606,0.08,-0.46,10.96,0.00,0.00,0.00,-28.31,17.38,29.38,120.44,1.00,0.25
DHT22: T=21.6 C | RH=66.0%
18706,-0.21,-0.44,9.87,0.00,0.00,0.00,-23.19,34.19,38.62,116.31,-1.38,-3.06
18806,-0.23,-0.81,10.18,0.00,0.00,0.00,-17.00,10.44,21.56,113.44,-3.56,-4.44
18906,-0.87,-1.06,7.07,0.00,0.00,0.00,-30.12,29.81,23.38,111.75,-5.50,-5.75
19006,-0.79,-1.78,7.03,0.00,0.00,0.00,-4.50,4.69,6.50,110.69,-7.06,-8.00
19106,-1.26,-1.31,8.12,0.00,0.00,0.00,12.88,-4.44,2.06,110.19,-6.56,-7.81
19206,-0.82,-1.37,8.57,0.00,0.00,0.00,11.38,-6.31,-12.69,110.94,-5.44,-7.25
19306,-0.80,-0.66,9.16,0.00,0.00,0.00,38.06,-9.25,-18.31,112.75,-3.94,-5.12
19406,-0.56,-0.25,9.06,0.00,0.00,0.00,19.56,-18.19,-13.12,114.25,-2.31,-2.25
19506,-0.30,-0.10,11.03,0.00,0.00,0.00,26.50,-10.12,-4.56,115.25,-0.56,-0.69
19606,0.09,-0.20,10.75,0.00,0.00,0.00,14.88,-5.62,-1.12,115.62,0.12,0.88
19706,-0.10,0.43,10.84,0.00,0.00,0.00,-12.69,-10.00,-2.38,115.50,0.75,0.75
19806,0.65,0.28,12.58,0.00,0.00,0.00,-18.75,9.50,-5.50,115.94,1.56,-0.50
19906,0.26,-0.88,9.56,0.00,0.00,0.00,-28.56,24.44,-4.44,116.12,-0.75,-2.50
20006,-0.77,-0.92,7.30,0.00,0.00,0.00,-21.31,33.06,-2.31,116.25,-3.50,-5.19
20106,-0.86,-1.17,7.36,0.00,0.00,0.00,-14.19,6.00,-3.19,116.62,-5.00,-7.25
20206,-0.82,-1.01,7.07,0.00,0.00,0.00,19.00,-6.19,0.94,116.69,-5.00,-7.00
20307,-0.36,-0.91,8.29,0.00,0.00,0.00,34.38,-14.06,2.19,116.44,-3.94,-4.19
20407,-0.21,-0.24,9.10,0.00,0.00,0.00,29.31,-30.75,-5.69,116.38,-1.88,-1.44
20508,0.37,-0.17,11.93,0.00,0.00,0.00,27.44,-16.88,-4.25,116.62,0.25,1.31
20608,-0.13,1.59,12.88,0.00,0.00,0.00,1.00,6.31,-2.06,116.44,1.06,2.50
20708,0.24,0.22,11.15,0.00,0.00,0.00,-21.19,14.38,-4.06,116.75,0.38,1.06
20809,-0.04,-0.15,10.55,0.00,0.00,0.00,-31.62,20.00,-1.00,116.75,-1.44,-1.44
20909,-1.04,-0.11,8.12,0.00,0.00,0.00,-30.62,24.38,0.81,116.88,-4.31,-4.25
21009,-1.01,-0.81,7.81,0.00,0.00,0.00,-16.12,1.75,-1.69,117.00,-5.56,-5.88
21108,-0.86,-0.85,7.50,0.00,0.00,0.00,14.88,-3.25,-1.81,117.31,-5.50,-5.88
DHT22: T=21.6 C | RH=66.0%
21207,-1.01,-0.52,6.75,0.00,0.00,0.00,21.19,-10.31,3.31,117.38,-4.75,-4.44
21306,0.03,-0.66,10.03,0.00,0.00,0.00,35.19,-30.06,-2.69,117.44,-2.56,-1.81
21406,-0.79,1.51,10.92,0.00,0.00,0.00,31.56,-13.12,1.06,117.19,-0.56,1.19
21506,0.70,-0.45,11.56,0.00,0.00,0.00,13.19,-9.75,-3.56,117.75,0.38,3.25
21607,0.23,1.13,13.00,0.00,0.00,0.00,-2.81,8.44,2.19,117.62,0.94,3.56
21707,-0.13,0.75,11.03,0.00,0.00,0.00,-24.62,17.62,-1.75,117.44,-0.31,1.75
21808,-0.14,-0.42,9.69,0.00,0.00,0.00,-29.12,30.62,2.19,117.50,-2.44,-1.00
21908,-1.14,0.46,7.77,0.00,0.00,0.00,-19.19,11.88,-3.62,117.31,-4.19,-3.62
22009,-1.07,-1.15,6.91,0.00,0.00,0.00,1.06,1.12,-5.81,117.75,-4.94,-5.00
22109,-0.45,-0.97,7.42,0.00,0.00,0.00,26.81,-3.19,4.69,117.69,-4.56,-3.81
22209,-0.69,-0.21,9.28,0.00,0.00,0.00,28.38,-16.69,2.75,117.31,-3.44,-1.25
22308,-0.81,0.88,9.85,0.00,0.00,0.00,20.12,-17.88,-1.62,117.25,-1.81,1.25
22407,0.68,-0.53,12.57,0.00,0.00,0.00,16.88,-9.31,-4.50,117.94,-0.56,3.19
22506,-0.65,1.01,10.09,0.00,0.00,0.00,-0.88,3.50,-1.62,117.88,-1.00,4.12
22606,-0.07,0.57,11.52,0.00,0.00,0.00,-17.75,-4.31,1.81,118.06,-0.81,3.44
22706,-0.16,0.33,10.32,0.00,0.00,0.00,-28.88,12.44,-0.56,117.94,-1.50,1.31
22807,-0.63,-0.09,9.49,0.00,0.00,0.00,-31.19,18.06,1.88,117.75,-2.88,-1.56
22907,-0.79,-0.44,8.52,0.00,0.00,0.00,-20.06,18.25,2.75,117.44,-4.38,-3.62
23008,-1.11,-0.85,6.57,0.00,0.00,0.00,-1.31,-0.75,-2.38,117.50,-5.38,-4.62
23108,-0.79,326.55,7.54,0.00,0.00,0.00,19.50,-5.31,2.94,117.56,-5.00,-3.50
23209,-1.42,0.13,7.90,0.00,0.00,0.00,34.62,-14.50,3.81,117.25,-4.38,-0.62
23309,-0.11,0.35,9.89,0.00,0.00,0.00,33.69,-26.62,-2.12,117.56,-2.31,2.00
23408,0.44,0.31,12.10,0.00,0.00,0.00,21.12,-16.19,0.38,117.94,-0.38,4.56
23507,0.03,1.14,11.44,0.00,0.00,0.00,1.50,-9.44,-1.69,117.94,0.25,5.62
23606,-0.03,0.95,11.75,0.00,0.00,0.00,-17.94,5.38,-1.06,118.06,0.38,4.81
DHT22: T=21.6 C | RH=66.0%
23706,0.24,-0.29,9.46,0.00,0.00,0.00,-26.50,17.94,-3.75,118.19,-0.75,2.56
23806,-0.73,0.05,9.20,0.00,0.00,0.00,-37.69,21.00,0.25,118.19,-2.06,-1.12
23906,-0.59,-1.14,8.17,0.00,0.00,0.00,-26.50,13.44,2.25,118.31,-4.31,-3.94
24006,-0.88,-0.45,6.52,0.00,0.00,0.00,-4.06,14.62,7.81,118.00,-5.75,-5.00
24106,-1.13,-0.79,7.15,0.00,0.00,0.00,10.19,-22.12,3.56,117.62,-5.06,-4.25
24206,-0.17,-0.73,8.89,0.00,0.00,0.00,29.31,-22.88,3.62,117.62,-3.12,-1.62
24306,-0.18,-0.10,10.16,0.00,0.00,0.00,31.12,-16.38,-0.12,117.56,-1.44,1.06
24406,-0.10,0.22,11.08,0.00,0.00,0.00,19.44,-14.00,-4.94,117.62,0.00,3.38
24506,0.14,0.78,11.89,0.00,0.00,0.00,8.06,-2.69,-2.81,117.94,0.94,4.88
24606,0.76,0.66,11.12,0.00,0.00,0.00,-16.38,7.44,-3.25,118.25,0.81,4.44
24706,-0.76,0.14,10.48,0.00,0.00,0.00,-19.12,10.19,0.75,118.31,-0.06,2.62
24806,0.42,-0.01,11.10,0.00,0.00,0.00,-34.44,20.38,0.62,118.56,-1.38,0.62
24906,-1.42,0.00,8.25,0.00,0.00,0.00,-23.75,11.94,-3.62,118.56,-4.00,-2.31
25006,-1.34,-0.33,6.63,0.00,0.00,0.00,-11.50,-4.31,-7.06,118.94,-4.75,-4.50
25106,-0.61,-1.03,7.69,0.00,0.00,0.00,2.88,-6.50,-0.88,119.56,-4.25,-5.19
25206,-0.92,-0.64,8.20,0.00,0.00,0.00,30.12,-5.38,6.00,119.38,-4.12,-3.06
25306,-0.34,0.11,9.97,0.00,0.00,0.00,27.00,-25.94,3.12,119.12,-2.75,0.06
25406,-1.04,1.48,11.15,0.00,0.00,0.00,18.31,-11.56,-1.69,119.06,-1.81,2.44
25506,-0.35,1.08,11.42,0.00,0.00,0.00,15.88,-6.00,-4.88,119.50,-1.06,4.38
25606,0.05,0.66,11.59,0.00,0.00,0.00,-1.00,-2.56,3.88,119.56,-0.75,5.00
25706,0.01,0.95,11.28,0.00,0.00,0.00,-14.31,-7.44,-1.69,119.56,-0.31,4.12
25806,0.18,0.84,9.74,0.00,0.00,0.00,-16.19,-26.69,-2.44,119.38,2.81,3.31
25906,0.41,-0.82,9.99,0.00,0.00,0.00,-21.31,22.44,-28.25,121.69,1.38,0.94
26006,-0.48,0.00,8.74,0.00,0.00,0.00,2.06,27.12,11.50,121.75,-2.25,-0.19
26106,-0.86,-0.21,7.18,0.00,0.00,0.00,-11.12,6.44,-11.81,121.94,-4.38,-1.44
DHT22: T=21.6 C | RH=66.0%
26206,-0.86,-0.85,6.58,0.00,0.00,0.00,25.25,-1.69,-0.31,122.44,-4.38,-2.38
26307,-1.35,-0.42,8.60,0.00,0.00,0.00,80.56,49.88,-1.38,122.44,-14.81,2.62
26407,-1.38,1.52,10.79,0.00,0.00,0.00,12.50,-44.56,24.56,120.19,-7.44,7.12
26508,-0.87,1.60,11.52,0.00,0.00,0.00,-19.62,-15.69,-9.69,119.88,-4.81,6.56
26608,-0.92,0.94,10.62,0.00,0.00,0.00,2.44,9.69,-3.56,120.75,-4.19,5.81
26709,-1.01,1.43,12.01,0.00,0.00,0.00,-18.44,-15.81,-7.38,121.19,-3.94,4.50
26809,-0.74,0.34,9.92,0.00,0.00,0.00,-23.81,22.62,-10.50,121.69,-4.31,2.00
26909,-0.83,0.19,8.83,0.00,0.00,0.00,9.75,-28.69,-18.69,123.50,-6.06,0.06
27008,-1.53,-0.26,6.87,0.00,0.00,0.00,-25.69,9.94,-16.25,124.44,-4.44,0.94
27107,-1.15,-0.17,7.03,0.00,0.00,0.00,-11.94,1.50,0.06,125.44,-4.56,-0.25
27207,-1.33,-0.50,8.60,0.00,0.00,0.00,-1.25,2.88,-1.44,125.56,-4.50,-1.62
27306,-0.79,-0.35,8.96,0.00,0.00,0.00,30.31,6.19,0.75,125.94,-4.62,-0.50
27406,-1.33,0.40,11.14,0.00,0.00,0.00,21.38,11.50,4.00,125.94,-6.19,1.31
27507,-0.52,1.81,11.58,0.00,0.00,0.00,12.38,4.06,1.25,126.44,-6.12,3.69
27607,-1.07,1.31,11.69,0.00,0.00,0.00,-9.81,-3.06,7.19,126.06,-5.56,3.44
27708,-1.34,0.68,10.30,0.00,0.00,0.00,-35.44,-2.06,-2.88,125.50,-5.38,0.50
27808,-0.97,-0.64,9.39,0.00,0.00,0.00,-34.81,6.00,6.19,125.50,-5.31,-2.12
27908,-0.95,-0.47,9.38,0.00,0.00,0.00,-15.56,-3.06,-20.31,127.38,-5.81,-4.75
28009,-0.95,-1.04,7.33,0.00,0.00,0.00,-25.75,2.94,-3.00,127.44,-5.69,-6.81
28109,-1.04,-1.39,6.47,0.00,0.00,0.00,19.94,0.00,4.12,127.38,-6.12,-6.94
28208,-1.40,-0.90,8.41,0.00,0.00,0.00,29.06,2.06,4.69,126.62,-6.00,-4.81
28307,-0.92,0.36,9.16,0.00,0.00,0.00,33.44,7.75,4.81,126.25,-13.94,-1.69
28406,-1.10,0.47,10.84,0.00,0.00,0.00,35.75,3.75,8.56,125.75,-6.19,1.69
28506,-1.44,1.50,12.88,0.00,0.00,0.00,5.38,10.06,0.25,125.44,-7.00,3.31
28606,-1.65,0.79,11.52,0.00,0.00,0.00,-9.00,-5.50,-1.75,125.50,-6.69,3.38
DHT22: T=21.6 C | RH=66.0%
28707,-1.29,0.43,10.67,0.00,0.00,0.00,-19.44,-4.12,-6.50,125.81,-6.50,1.12
28807,-1.02,-0.07,8.75,0.00,0.00,0.00,-18.00,7.12,-18.62,126.56,-6.31,-1.31
28907,-1.19,-0.61,7.83,0.00,0.00,0.00,-73.31,11.44,0.19,127.25,-6.62,-5.00
29008,-1.42,-1.01,6.27,0.00,0.00,0.00,29.56,-4.56,-0.25,127.44,-7.38,-6.88
29108,-1.34,-0.78,7.28,0.00,0.00,0.00,12.50,-8.44,1.12,127.38,-6.69,-5.56
29208,-0.91,-0.65,7.80,0.00,0.00,0.00,29.56,-20.62,1.12,126.88,-5.00,-2.94
29308,-1.04,-0.65,10.59,0.00,0.00,0.00,41.00,-3.19,8.56,126.25,-4.38,0.00
29407,-0.46,1.56,11.58,0.00,0.00,0.00,12.94,4.81,1.12,126.12,-4.12,2.44
29507,-0.87,1.26,11.95,0.00,0.00,0.00,0.62,-0.38,-0.12,125.81,-4.19,3.75
29606,-1.28,0.63,12.09,0.00,0.00,0.00,-12.75,-3.50,-6.19,126.12,-4.31,3.06
29706,-0.71,0.18,9.82,0.00,0.00,0.00,-41.62,1.38,-4.19,126.56,-4.44,-0.25
29806,-1.16,-0.77,8.48,0.00,0.00,0.00,-5.44,4.62,-26.06,127.56,-4.81,-2.62
29906,-0.65,-0.32,7.42,0.00,0.00,0.00,-29.81,12.56,-10.62,129.69,-5.38,-4.56
30006,-1.26,-1.04,6.93,0.00,0.00,0.00,20.19,-2.75,3.00,129.88,-6.06,-4.38
30106,-1.19,-0.94,7.19,0.00,0.00,0.00,10.31,-12.38,11.12,129.12,-5.06,-3.12
30206,-0.58,-0.08,8.33,0.00,0.00,0.00,33.62,0.56,11.81,128.38,-4.56,-1.25
30306,-1.32,0.48,11.49,0.00,0.00,0.00,14.69,13.69,3.75,127.69,-5.44,1.88
30406,-1.52,1.33,12.63,0.00,0.00,0.00,24.25,-4.69,5.75,127.44,-6.00,3.69
30506,-1.37,1.12,11.96,0.00,0.00,0.00,-13.06,-9.00,-2.00,127.38,-5.56,3.06
30606,-1.21,0.14,10.06,0.00,0.00,0.00,-8.00,-6.44,-12.75,127.81,-4.69,1.94
30706,-1.18,-0.52,9.18,0.00,0.00,0.00,-30.94,0.00,-7.25,128.62,-4.44,0.31
30806,-0.67,-0.54,7.77,0.00,0.00,0.00,-31.69,14.75,-12.25,129.50,-5.06,-3.44
30906,-0.86,-0.73,6.36,0.00,0.00,0.00,-22.75,18.81,-10.50,130.50,-7.44,-6.31
31006,-1.68,-1.16,6.96,0.00,0.00,0.00,14.75,-15.31,9.69,130.06,-7.00,-6.19
31106,-1.28,-0.50,8.99,0.00,0.00,0.00,27.06,-13.06,2.88,129.44,-5.50,-3.81
DHT22: T=21.6 C | RH=66.0%
31206,-0.70,-0.15,9.78,0.00,0.00,0.00,37.81,0.75,6.75,128.94,-5.12,-0.44
31306,-0.81,0.58,10.66,0.00,0.00,0.00,20.06,1.56,8.44,128.38,-5.50,2.44
31406,-1.55,0.89,11.71,0.00,0.00,0.00,16.12,16.69,10.12,127.69,-6.25,4.38
31506,-1.69,1.13,12.16,0.00,0.00,0.00,-4.75,-6.31,-2.94,127.62,-6.94,4.25
31606,-1.25,0.56,10.42,0.00,0.00,0.00,-23.25,-10.88,-10.50,128.25,-6.00,2.50
31706,-0.70,0.25,9.17,0.00,0.00,0.00,-23.69,-8.50,-13.56,129.12,-5.25,0.19
31806,-0.53,-0.17,8.27,0.00,0.00,0.00,-34.62,-4.38,-25.88,130.75,-4.81,-3.12
31906,-0.51,-0.47,6.95,0.00,0.00,0.00,-39.38,-7.19,-36.06,133.38,-3.62,-6.62
32006,-1.00,-1.23,7.38,0.00,0.00,0.00,22.12,4.88,2.00,134.38,-3.56,-6.06
32106,-1.24,-0.76,8.88,0.00,0.00,0.00,19.75,4.00,1.44,134.31,-3.69,-4.06
32206,-0.79,-0.40,9.51,0.00,0.00,0.00,14.38,-4.31,-2.69,134.38,-3.81,-2.50
32307,-0.97,-0.27,9.86,0.00,0.00,0.00,10.12,24.44,6.00,134.19,-4.56,-0.81
32407,-1.18,0.48,11.63,0.00,0.00,0.00,22.75,2.50,0.50,134.25,-5.56,0.62
32508,-1.23,0.74,11.69,0.00,0.00,0.00,7.25,-8.88,6.31,133.75,-5.19,2.19
32608,-1.16,0.53,11.44,0.00,0.00,0.00,-11.62,-4.94,3.19,133.56,-4.81,1.50
32709,-1.10,0.00,9.68,0.00,0.00,0.00,-29.69,-0.75,-1.19,133.31,-4.56,-0.69
32809,-0.87,-0.93,8.53,0.00,0.00,0.00,-28.06,0.19,-9.75,133.81,-4.44,-4.06
32909,-0.74,-0.89,7.60,0.00,0.00,0.00,-18.88,3.44,-7.69,134.44,-4.62,-6.44
33008,-0.67,-0.78,6.58,0.00,0.00,0.00,-4.44,1.06,-4.31,135.06,-5.06,-7.12
33107,-1.10,-1.00,8.02,0.00,0.00,0.00,15.75,-8.56,4.88,134.81,-4.62,-5.94
33206,-0.46,-0.43,8.56,0.00,0.00,0.00,27.19,-4.94,3.38,134.50,-3.69,-3.38
33306,-1.08,0.05,10.37,0.00,0.00,0.00,28.69,7.19,2.62,134.19,-3.81,-0.06
33406,-0.97,0.95,11.55,0.00,0.00,0.00,17.19,11.81,4.19,133.94,-4.69,2.31
33507,-1.24,1.03,13.05,0.00,0.00,0.00,5.00,-3.75,2.69,133.88,-5.25,3.00
33607,-0.87,1.31,11.67,0.00,0.00,0.00,-16.69,-4.25,-1.31,133.75,-5.06,1.56
DHT22: T=21.6 C | RH=66.0%
33708,-1.18,-0.45,9.46,0.00,0.00,0.00,-28.75,-2.25,1.19,133.50,-4.38,-0.44
33808,-1.02,-0.91,9.19,0.00,0.00,0.00,-42.25,7.12,-5.75,133.56,-4.50,-3.56
33908,-0.78,-0.91,6.64,0.00,0.00,0.00,-40.31,7.12,-4.75,134.19,-4.62,-7.12
34009,-0.10,-0.77,5.11,0.00,0.00,0.00,13.00,-12.12,3.12,134.56,-4.69,-9.44
34109,-1.44,-0.99,8.82,0.00,0.00,0.00,33.25,0.19,2.25,133.94,-3.81,-5.62
34208,-0.18,0.56,9.73,0.00,0.00,0.00,25.19,-1.19,0.62,133.81,-3.50,-2.75
34307,-0.43,0.08,9.56,0.00,0.00,0.00,30.00,0.50,-0.31,133.50,-3.38,0.38
34406,-1.04,0.90,12.55,0.00,0.00,0.00,14.00,17.25,4.25,133.25,-4.56,2.31
34506,-1.60,0.41,12.35,0.00,0.00,0.00,-13.75,-1.81,2.19,132.88,-4.94,2.38
34606,-1.15,0.50,11.10,0.00,0.00,0.00,-30.38,-3.81,-4.50,133.06,-4.50,0.44
34707,-0.76,-0.07,9.88,0.00,0.00,0.00,-40.19,-2.31,-7.94,133.56,-4.00,-2.88
34807,326.97,-0.89,7.69,0.00,0.00,0.00,-34.19,1.19,-6.62,134.19,-3.69,-6.12
34908,-0.64,-0.96,6.32,0.00,0.00,0.00,-14.88,8.38,-3.56,134.81,-4.31,-8.50
35008,-0.95,-1.31,7.10,0.00,0.00,0.00,20.19,-6.44,-0.19,135.00,-4.25,-7.69
35109,-0.80,-0.90,8.62,0.00,0.00,0.00,23.06,-4.94,5.69,134.69,-3.38,-5.56
35209,-0.56,-0.25,9.39,0.00,0.00,0.00,32.06,5.81,4.62,134.38,-3.19,-2.69
35309,-0.90,0.16,10.92,0.00,0.00,0.00,25.19,8.56,6.62,133.88,-4.00,-0.06
35407,-1.44,0.63,12.55,0.00,0.00,0.00,11.81,1.69,3.12,133.38,-4.62,1.81
35506,-1.37,0.40,11.67,0.00,0.00,0.00,-13.12,-6.88,0.00,133.19,-4.12,1.56
35606,-0.96,-0.29,10.02,0.00,0.00,0.00,-24.44,-11.69,-5.69,133.38,-3.31,-0.44
35706,-0.70,-0.62,8.85,0.00,0.00,0.00,-31.19,-1.25,-5.44,133.88,-2.88,-3.25
35806,-0.14,-0.04,8.07,0.00,0.00,0.00,-24.12,-0.44,-2.19,134.38,-2.69,-6.12
35906,-0.69,-1.04,7.16,0.00,0.00,0.00,-2.94,-1.19,-2.06,134.69,-2.75,-7.44
36006,-0.78,-1.14,7.72,0.00,0.00,0.00,13.44,-0.38,3.50,134.38,-2.62,-6.81
36106,-0.30,-0.28,8.40,0.00,0.00,0.00,26.88,-2.50,2.19,134.25,-2.38,-4.44
DHT22: T=21.6 C | RH=66.0%
36206,-0.40,-0.28,9.19,0.00,0.00,0.00,37.38,7.56,4.56,134.00,-2.88,-1.44
36306,-1.13,0.37,12.04,0.00,0.00,0.00,27.56,16.56,6.69,133.31,-4.38,1.62
36406,-1.38,0.95,12.50,0.00,0.00,0.00,2.19,4.31,3.50,133.06,-4.88,3.50
36506,-0.95,0.62,11.22,0.00,0.00,0.00,-15.12,-12.19,-2.25,133.06,-4.31,2.75
36606,-0.65,0.34,9.88,0.00,0.00,0.00,-30.56,-6.75,-4.19,133.38,-3.44,0.62
36706,-0.72,-0.04,9.16,0.00,0.00,0.00,-35.31,-0.69,-5.50,133.69,-3.31,-2.38
36806,-0.94,-0.71,8.95,0.00,0.00,0.00,-22.88,-7.69,-6.38,134.19,-2.94,-5.19
36906,-0.56,-1.47,7.13,0.00,0.00,0.00,-29.25,6.56,2.44,134.56,-2.69,-7.94
37006,-0.16,-1.25,6.73,0.00,0.00,0.00,24.88,-10.50,-0.06,134.62,-2.69,-7.75
37106,-0.63,-0.77,7.83,0.00,0.00,0.00,31.50,-2.06,4.81,134.31,-2.19,-5.06
37206,-0.84,-0.33,9.00,0.00,0.00,0.00,37.31,5.62,3.94,134.06,-2.44,-1.81
37306,-0.75,0.42,10.97,0.00,0.00,0.00,29.31,13.12,-0.12,134.06,-3.50,1.19
37406,-0.77,0.99,12.22,0.00,0.00,0.00,8.69,4.38,3.88,133.94,-4.38,3.00
37506,-1.02,0.66,11.75,0.00,0.00,0.00,-15.00,-2.81,1.19,133.69,-4.25,2.81
37606,-0.82,0.08,10.55,0.00,0.00,0.00,-23.06,-3.62,0.25,133.62,-3.81,0.81
37706,-0.64,-0.28,9.45,0.00,0.00,0.00,-34.12,0.19,-2.94,133.69,-3.75,-2.19
37806,-0.91,-0.99,8.64,0.00,0.00,0.00,-31.19,3.12,-0.88,133.75,-4.00,-5.25
37906,-0.90,-0.87,6.72,0.00,0.00,0.00,-19.94,18.06,8.94,133.31,-5.31,-8.62
38006,-0.64,-0.77,6.57,0.00,0.00,0.00,32.75,-14.81,-4.31,133.50,-4.81,-7.56
38106,-0.61,-0.73,8.25,0.00,0.00,0.00,40.88,-17.62,0.25,133.62,-3.31,-4.44
38207,-0.60,-0.66,9.92,0.00,0.00,0.00,39.75,1.50,3.44,133.38,-10.94,-0.50
38307,-1.29,-0.11,12.24,0.00,0.00,0.00,16.00,8.75,-2.31,133.19,-3.94,2.62
38408,-1.08,0.87,12.28,0.00,0.00,0.00,1.50,-15.06,0.25,133.38,-3.69,3.62
38508,-0.87,0.65,11.59,0.00,0.00,0.00,-22.56,-13.88,-0.12,133.38,-2.81,2.44
38609,-0.24,-0.20,9.87,0.00,0.00,0.00,-15.94,-3.50,-4.50,133.62,-1.69,0.62
DHT22: T=21.6 C | RH=66.0%
38709,-0.46,-0.17,8.96,0.00,0.00,0.00,-38.25,-4.06,-1.75,133.81,-1.44,-1.50
38809,-0.81,-0.38,8.07,0.00,0.00,0.00,2024.81,3.25,0.50,134.00,-1.69,-4.44
38909,-0.86,-0.96,7.29,0.00,0.00,0.00,0.62,7.69,2.44,134.31,-2.38,-5.00
39007,-0.67,-0.82,7.05,0.00,0.00,0.00,22.25,-1.69,4.56,134.19,-2.50,-4.50
39106,-0.50,-0.21,9.05,0.00,0.00,0.00,43.94,1.81,7.69,133.56,-3.12,-1.00
39206,-0.62,0.68,10.26,0.00,0.00,0.00,20.62,8.31,8.38,132.75,-3.38,2.62
39306,-2.57,1.41,14.60,0.00,0.00,0.00,-31.75,-6.56,-14.38,132.75,-4.31,3.19
39407,-1.16,1.60,12.65,0.00,0.00,0.00,-12.44,0.81,2.75,132.44,-4.31,3.19
39507,-0.96,0.12,10.38,0.00,0.00,0.00,-34.31,-6.88,-0.19,132.44,-3.25,1.50
39607,-0.60,-0.33,9.52,0.00,0.00,0.00,-34.00,8.94,-0.44,132.56,-3.06,-1.88
39708,-0.64,-0.76,8.50,0.00,0.00,0.00,-28.31,-12.88,-6.00,132.44,-2.88,-5.19
39808,-0.87,-1.08,6.46,0.00,0.00,0.00,-12.75,37.31,-13.75,132.88,-5.38,-7.25
39909,-1.20,-1.47,7.37,0.00,0.00,0.00,-0.81,-16.94,3.50,132.31,-4.94,-6.69
40009,-0.27,0.27,9.42,0.00,0.00,0.00,57.94,-13.25,32.44,130.31,-1.88,-2.75
40109,-0.34,0.07,8.99,0.00,0.00,0.00,53.44,9.19,0.94,129.25,-0.62,2.12
40208,-1.01,1.91,10.00,0.00,0.00,0.00,14.06,32.12,11.56,128.75,-3.81,3.69
40307,-1.77,0.91,10.85,0.00,0.00,0.00,-0.75,43.44,-0.06,128.81,-6.88,5.31
40406,-1.76,1.09,11.67,0.00,0.00,0.00,2.12,-7.75,-7.56,128.88,-7.00,6.31
40506,-1.49,0.42,11.52,0.00,0.00,0.00,-53.62,-21.44,-6.38,129.50,-6.31,2.00
40606,-1.14,-0.49,9.45,0.00,0.00,0.00,-36.94,-10.75,-6.19,130.00,-4.88,-2.06
40707,-0.77,-0.90,8.62,0.00,0.00,0.00,-21.56,-4.25,-8.06,130.44,-4.12,-5.44
40807,-0.77,-0.81,8.40,0.00,0.00,0.00,-25.94,-5.06,4.38,129.75,-3.88,-7.94
40908,-0.68,-1.13,7.09,0.00,0.00,0.00,5.75,-58.50,-0.94,129.62,-0.88,-8.25
41008,-0.18,-0.73,8.13,0.00,0.00,0.00,7.38,21.44,2.38,129.50,0.25,-7.56
41108,-0.73,-1.26,8.38,0.00,0.00,0.00,39.75,7.56,0.06,129.69,-1.81,-5.50
DHT22: T=21.6 C | RH=66.0%
41208,-0.71,0.04,9.52,0.00,0.00,0.00,17.62,-19.25,8.81,129.19,-9.12,-3.25
41308,-0.47,-0.01,10.07,0.00,0.00,0.00,22.31,9.75,-0.31,129.62,-1.12,-1.56
41406,-0.83,-0.08,10.66,0.00,0.00,0.00,8.31,11.00,1.38,128.88,-3.38,0.00
41506,-1.25,-0.30,11.02,0.00,0.00,0.00,-1.06,4.25,11.81,128.94,-3.50,0.69
41606,-0.63,0.41,11.73,0.00,0.00,0.00,-3.31,-15.31,-7.31,128.62,-3.62,0.25
41706,-0.77,-0.19,9.90,0.00,0.00,0.00,-11.75,-12.44,-8.25,129.56,-1.50,0.25
41806,-0.49,-0.40,9.08,0.00,0.00,0.00,-32.75,5.31,9.06,129.06,-2.38,-2.00
41906,-0.78,-0.99,7.48,0.00,0.00,0.00,-41.31,1.75,5.31,128.44,-2.25,-6.19
42006,-0.54,-0.98,6.87,0.00,0.00,0.00,6.00,-15.06,-7.38,128.12,-0.75,-9.19
42106,-0.04,-1.12,7.35,0.00,0.00,0.00,42.81,9.69,6.88,129.00,0.50,-7.75
42206,-0.23,-1.16,8.51,0.00,0.00,0.00,0.88,10.12,-18.19,129.38,-0.44,-5.44
42306,0.08,-0.62,10.02,0.00,0.00,0.00,36.69,-12.88,4.50,130.06,0.44,-2.75
42406,-0.65,0.04,11.45,0.00,0.00,0.00,18.25,33.00,19.69,128.94,-1.44,0.00
42506,-0.80,0.67,11.73,0.00,0.00,0.00,5.19,-10.56,-1.44,127.88,-3.12,1.31
42606,-0.25,0.23,11.64,0.00,0.00,0.00,-12.38,-24.06,-1.25,128.31,0.38,0.62
42706,-0.03,-0.27,9.44,0.00,0.00,0.00,-34.62,-13.38,-8.31,128.75,0.62,-1.19
42806,-0.11,-0.99,8.76,0.00,0.00,0.00,-36.06,18.75,-9.19,129.50,-0.38,-4.06
42906,-0.60,-0.91,8.20,0.00,0.00,0.00,-9.62,3.62,-3.81,130.19,-2.38,-5.75
43006,-0.18,-0.85,7.49,0.00,0.00,0.00,-16.38,-34.12,5.69,129.75,0.88,-7.25
43106,0.00,-0.73,7.94,0.00,0.00,0.00,20.19,36.69,-0.69,129.81,0.19,-6.38
43206,-0.41,-1.03,8.64,0.00,0.00,0.00,27.81,5.81,-1.12,129.75,-2.44,-4.31
43306,-0.95,0.22,10.16,0.00,0.00,0.00,25.44,-1.25,4.38,129.62,-2.25,-1.69
43406,-0.82,0.28,9.97,0.00,0.00,0.00,28.19,31.25,-2.44,129.38,-4.75,1.00
43506,-1.22,0.49,11.45,0.00,0.00,0.00,9.06,7.69,2.06,129.31,-5.56,2.06
43606,-1.45,0.66,12.52,0.00,0.00,0.00,-15.19,-1.06,-5.94,129.56,-5.81,1.81
DHT22: T=21.6 C | RH=66.0%
43706,-0.95,-0.45,10.36,0.00,0.00,0.00,-35.38,-11.19,-6.12,130.00,-5.06,-0.69
43806,-0.94,-0.78,8.31,0.00,0.00,0.00,-30.69,7.31,1.69,129.88,-5.25,-3.81
43906,-1.22,-1.04,8.12,0.00,0.00,0.00,-29.12,-6.12,-7.50,130.31,-5.88,-6.44
44006,-1.15,-0.97,7.48,0.00,0.00,0.00,-7.38,4.00,-0.12,130.19,-5.56,-7.88
44106,-0.91,-1.26,7.39,0.00,0.00,0.00,16.94,2.12,-1.75,130.62,-5.88,-7.50
44206,-1.01,-1.12,7.95,0.00,0.00,0.00,34.12,2.69,-0.88,131.00,-7.12,-5.12
44307,-1.18,-0.49,9.70,0.00,0.00,0.00,30.62,23.56,4.38,130.62,-6.56,-2.25
44407,-1.47,0.32,11.31,0.00,0.00,0.00,17.62,-7.06,2.38,130.75,-7.19,0.38
44508,-1.38,0.36,11.76,0.00,0.00,0.00,1.62,-34.12,-0.62,130.81,-5.69,1.75
44608,-0.97,0.17,11.64,0.00,0.00,0.00,-13.50,12.88,-10.38,131.12,-4.94,1.00
44709,-1.01,-0.30,10.37,0.00,0.00,0.00,-33.75,-28.44,-1.19,131.50,-4.69,-1.31
44809,-0.63,-0.93,8.83,0.00,0.00,0.00,-33.38,-15.75,-3.44,131.56,-2.94,-4.12
44909,-0.40,-0.89,7.52,0.00,0.00,0.00,-23.12,-17.31,-5.56,132.12,-1.94,-6.56
45008,-0.18,-0.96,6.82,0.00,0.00,0.00,-4.31,-8.12,2.50,131.81,-0.50,2040.19
45106,-0.22,-1.15,7.93,0.00,0.00,0.00,16.38,23.75,-3.00,131.88,-1.50,-7.06
45206,-0.58,-0.90,8.67,0.00,0.00,0.00,30.75,23.94,7.94,131.75,-4.31,-4.88
45306,-1.12,-0.53,9.02,0.00,0.00,0.00,24.38,-3.38,7.62,131.69,-5.19,-1.94
45406,-0.64,0.12,10.72,0.00,0.00,0.00,18.19,-17.19,-0.94,131.75,-2.62,0.19
45507,-0.74,0.45,11.63,0.00,0.00,0.00,18.62,31.56,-0.69,131.69,-4.25,1.75
45607,-1.08,0.31,11.93,0.00,0.00,0.00,-12.94,1.62,-2.31,131.81,-5.62,2.00
45708,-0.92,0.04,10.93,0.00,0.00,0.00,-23.19,-28.31,-4.94,132.00,-3.88,0.00
45808,-0.32,-0.53,9.05,0.00,0.00,0.00,-32.81,-20.25,-5.38,132.56,-2.19,-3.00
45909,-0.24,-1.01,6.90,0.00,0.00,0.00,-14.06,1.25,-2.38,133.00,-0.25,-5.62
46009,-0.35,326.85,7.77,0.00,0.00,0.00,-2.50,17.94,1.06,133.00,-1.94,-6.38
46109,-0.65,-1.02,7.82,0.00,0.00,0.00,13.75,24.88,-0.75,132.81,-3.25,-5.75
DHT22: T=21.6 C | RH=66.0%
46208,-0.69,-0.86,8.31,0.00,0.00,0.00,30.69,25.25,3.00,133.00,-5.06,-3.88
46307,-0.59,-0.28,9.31,0.00,0.00,0.00,35.25,5.56,3.56,132.69,-13.12,-0.75
46406,-1.50,0.38,10.67,0.00,0.00,0.00,27.00,24.88,18.25,131.88,-8.00,2.06
46506,-1.76,0.91,12.28,0.00,0.00,0.00,-1.44,-25.56,-4.38,131.75,-6.75,3.50
46606,-1.19,0.60,11.07,0.00,0.00,0.00,-14.94,-10.00,-3.12,132.00,-5.44,2.75
46707,-0.85,0.00,10.23,0.00,0.00,0.00,-24.75,-9.19,0.50,131.62,-4.75,0.50
46807,-0.69,-0.48,9.97,0.00,0.00,0.00,-38.19,-25.50,-1.31,131.81,-3.31,-2.25
46907,-0.37,-0.42,8.62,0.00,0.00,0.00,-2.56,5.69,-11.88,131.88,-2.56,-4.69
47008,-0.53,-0.80,7.49,0.00,0.00,0.00,-11.06,-28.50,-1.88,133.00,-2.81,-4.19
47108,-0.19,-0.83,7.70,0.00,0.00,0.00,-5.94,2.06,0.50,133.00,-0.94,-5.19
47208,-0.48,-0.97,7.53,0.00,0.00,0.00,17.50,-3.38,-2.62,132.81,-1.88,-4.56
47309,-0.31,-0.25,9.15,0.00,0.00,0.00,20.62,3.06,6.12,132.62,-0.75,-2.44
47408,-0.28,0.04,10.44,0.00,0.00,0.00,23.38,2.31,1.62,132.75,-1.81,0.31
47507,-0.72,0.69,11.68,0.00,0.00,0.00,31.69,60.88,-4.06,132.88,-3.38,2.62
47606,-1.28,1.18,11.85,0.00,0.00,0.00,4.94,7.88,-2.31,132.81,-7.12,4.38
47706,-1.30,0.56,11.25,0.00,0.00,0.00,-33.25,-20.19,2.69,133.12,-6.00,3.31
47806,-0.50,0.04,9.72,0.00,0.00,0.00,-30.00,-26.56,-3.75,133.06,-3.25,0.00
47906,-0.31,-0.22,8.19,0.00,0.00,0.00,-39.81,-34.12,-0.94,133.12,-0.56,-3.00
48006,-0.36,-0.79,7.03,0.00,0.00,0.00,-21.44,-3.75,2.81,133.19,-0.31,-4.81
48106,0.00,-0.83,7.84,0.00,0.00,0.00,-8.25,-14.88,-0.06,133.19,-0.75,-5.44
48206,-0.32,-0.86,8.13,0.00,0.00,0.00,19.56,51.31,-2.69,133.38,-2.75,-4.62
48306,-0.98,-0.57,8.60,0.00,0.00,0.00,25.00,6.56,8.00,132.75,-5.38,-2.38
48406,-1.20,0.04,10.91,0.00,0.00,0.00,26.50,-1.44,-0.12,132.50,-5.56,0.38
48506,-0.88,1.10,11.86,0.00,0.00,0.00,30.12,7.94,-0.31,132.75,-5.44,2.56
48606,-1.23,0.70,12.01,0.00,0.00,0.00,-8.94,-7.62,3.25,132.88,-5.31,3.75
DHT22: T=21.6 C | RH=66.0%
48706,-1.05,0.37,11.14,0.00,0.00,0.00,-26.25,4.25,-8.06,133.38,-4.94,1.81
48806,-0.79,-0.19,9.57,0.00,0.00,0.00,-31.75,7.31,2.56,133.44,-5.62,-0.81
48906,-1.78,-0.29,7.88,0.00,0.00,0.00,-28.81,13.69,-16.56,133.94,-6.50,-4.19
49006,-1.10,-0.94,6.03,0.00,0.00,0.00,-14.56,4.69,2.81,133.81,-6.50,-7.19
49106,-1.05,-0.82,8.05,0.00,0.00,0.00,12.94,-4.31,-0.31,133.69,-6.25,-6.81
49206,-1.32,-0.34,8.76,0.00,0.00,0.00,30.62,-5.44,-2.81,133.75,-5.88,-5.12
49306,-0.12,-0.80,9.61,0.00,0.00,0.00,29.44,-19.25,-1.75,133.81,-4.81,-1.88
49406,-1.33,0.35,9.59,0.00,0.00,0.00,28.94,-19.12,4.81,133.38,-3.56,0.56
49506,-0.55,0.35,12.44,0.00,0.00,0.00,28.94,-7.44,0.62,133.56,-2.12,3.06
49606,-0.42,0.85,12.02,0.00,0.00,0.00,-12.69,4.50,-4.50,133.88,-2.31,3.69
49706,-0.33,0.70,12.12,0.00,0.00,0.00,-38.31,7.69,-4.81,134.25,-3.06,1.12
49806,-0.90,-0.97,8.92,0.00,0.00,0.00,-32.50,13.12,-4.12,134.50,-4.94,-2.81
49906,-0.71,-0.92,7.24,0.00,0.00,0.00,-18.19,-1.50,1.50,134.56,-5.81,-5.38
50006,-0.87,-0.52,7.35,0.00,0.00,0.00,-1.25,-2.75,5.44,134.19,-5.56,-6.12
50106,-1.06,-0.81,7.57,0.00,0.00,0.00,8.12,-5.81,1.44,133.94,-5.44,-5.50
50206,-1.30,-0.45,8.77,0.00,0.00,0.00,32.19,4.19,-5.12,134.44,-5.00,-3.19
50307,-0.18,-0.43,9.93,0.00,0.00,0.00,23.94,-10.25,-3.12,134.81,-4.19,0.38
50407,327.03,0.64,11.26,0.00,0.00,0.00,24.19,-6.31,7.06,134.44,-3.06,2.88
50507,-1.11,1.38,11.57,0.00,0.00,0.00,7.88,-7.81,-0.12,134.12,-2.62,4.62
50608,-0.30,1.00,12.16,0.00,0.00,0.00,-13.88,8.44,0.88,134.19,-2.38,4.19
50708,-0.53,0.24,10.62,0.00,0.00,0.00,-29.50,10.75,0.88,133.94,-3.31,2.06
50809,-0.93,0.03,9.18,0.00,0.00,0.00,-31.00,23.50,-2.81,133.75,-4.38,-1.25
50909,-0.98,-0.73,7.71,0.00,0.00,0.00,-18.00,8.88,1.75,133.56,-5.44,-3.69
51009,-1.24,-0.53,6.98,0.00,0.00,0.00,0.06,-1.81,0.62,133.50,-5.56,-4.69
51108,-1.12,-0.58,7.59,0.00,0.00,0.00,16.00,0.38,4.12,133.19,-5.56,-3.94
DHT22: T=21.6 C | RH=66.0%
51207,-1.67,0.57,9.01,0.00,0.00,0.00,27.75,-21.06,11.38,132.81,-5.06,-1.56
51306,-1.39,1.00,10.18,0.00,0.00,0.00,21.81,-17.50,12.56,132.25,-4.50,1.75
51406,-0.79,0.91,10.59,0.00,0.00,0.00,14.56,-10.19,6.44,132.06,-3.50,3.50
51506,-0.35,0.68,11.79,0.00,0.00,0.00,1.31,-18.31,1.56,131.94,-2.56,4.94
51607,-0.32,0.74,11.47,0.00,0.00,0.00,-13.75,6.62,2.38,131.69,-2.12,4.44
51707,-0.22,0.04,9.90,0.00,0.00,0.00,-29.69,0.81,-2.00,131.75,-2.50,2.06
51808,-0.61,-0.29,9.41,0.00,0.00,0.00,-29.56,4.94,5.31,131.38,-2.88,-0.50
51908,-1.02,-0.04,8.64,0.00,0.00,0.00,-26.56,1.38,4.19,130.81,-3.12,-3.06
52009,-0.61,-0.64,8.03,0.00,0.00,0.00,-11.50,-1.56,-1.62,130.44,-3.12,-5.06
52109,-0.30,-1.13,7.00,0.00,0.00,0.00,5.88,-2.69,1.75,130.44,-2.81,-5.19
52209,-0.62,-0.85,8.03,0.00,0.00,0.00,29.75,2043.94,1.38,130.25,-10.50,-3.38
52308,-0.50,-0.09,9.13,0.00,0.00,0.00,25.44,0.06,1.88,130.25,-1.88,-0.88
52407,0.00,-0.14,9.80,0.00,0.00,0.00,21.94,0.62,-2.31,130.44,-9.25,1.44
52506,0.24,0.28,10.10,0.00,0.00,0.00,14.44,-5.69,-2.88,130.62,-0.56,3.44
52606,-0.08,0.43,10.84,0.00,0.00,0.00,9.62,2.06,-3.12,130.75,-0.38,4.69
52706,0.08,0.95,12.12,0.00,0.00,0.00,-18.75,-1.75,4.50,130.56,-0.25,4.50
52807,0.09,0.06,10.56,0.00,0.00,0.00,-35.94,8.88,0.19,130.44,-0.75,1.94
52907,-0.44,-0.67,9.22,0.00,0.00,0.00,-34.06,17.44,1.75,130.31,-2.12,-1.44
53008,-0.95,-0.64,7.41,0.00,0.00,0.00,-33.00,11.00,1.62,130.06,-3.06,-5.00
53108,-0.40,326.41,6.56,0.00,0.00,0.00,12.12,-0.44,-1.12,130.19,-3.38,-5.88
53208,-0.62,-0.94,8.21,0.00,0.00,0.00,29.81,-6.31,3.31,130.06,-3.06,-3.56
53308,-1.38,0.48,9.33,0.00,0.00,0.00,33.50,-8.25,3.62,129.75,-2.38,-0.50
53408,-1.07,0.77,8.86,0.00,0.00,0.00,24.31,-7.50,-1.62,129.88,-1.94,2.06
53507,-0.30,0.35,11.09,0.00,0.00,0.00,8.00,-0.44,-4.06,130.75,-0.69,3.88
53606,0.00,0.65,11.02,0.00,0.00,0.00,3.00,5.94,-1.56,130.94,-0.75,5.19
DHT22: T=21.6 C | RH=66.0%
53706,-0.15,0.91,12.06,0.00,0.00,0.00,-21.19,-3.69,-2.00,130.81,-0.62,4.50
53806,-0.09,0.01,9.64,0.00,0.00,0.00,-30.62,12.81,1.44,130.69,-1.25,1.69
53906,-0.33,-0.63,8.41,0.00,0.00,0.00,-31.94,18.38,-0.94,130.44,-2.31,-1.81
54006,-0.54,-1.12,7.21,0.00,0.00,0.00,-18.50,11.62,-1.94,130.50,-3.44,-4.38
54106,-0.35,-1.24,7.58,0.00,0.00,0.00,1.94,0.94,-1.38,130.62,-3.88,-5.25
54206,-1.13,-0.64,7.35,0.00,0.00,0.00,20.00,-3.44,1.56,130.62,-4.00,-4.06
54306,-1.26,-0.46,8.03,0.00,0.00,0.00,36.50,-14.25,-1.69,130.81,-3.38,-1.62
54406,0.30,0.15,10.67,0.00,0.00,0.00,34.69,-14.69,-0.25,131.06,-1.31,1.81
54506,-0.54,1.01,12.17,0.00,0.00,0.00,30.56,-13.75,-3.25,130.94,-0.12,5.06
54606,0.18,1.14,12.08,0.00,0.00,0.00,-4.94,1.12,0.25,131.19,0.19,6.19
54706,-0.04,0.84,10.93,0.00,0.00,0.00,-20.00,4.94,1.81,131.06,-0.12,4.88
54806,-0.13,0.67,11.14,0.00,0.00,0.00,-35.94,24.75,-0.38,131.00,-0.88,2.00
54906,-0.45,-0.96,7.98,0.00,0.00,0.00,-29.69,18.62,-3.88,131.00,-2.94,-1.44
55006,-0.78,-0.88,7.41,0.00,0.00,0.00,-10.75,2.56,1.88,130.88,-4.19,-3.81
55106,-0.87,-0.75,8.40,0.00,0.00,0.00,6.75,-3.25,3.62,130.75,-4.12,-4.25
55206,-1.37,-0.21,8.00,0.00,0.00,0.00,15.81,-1.56,0.50,130.62,-4.06,-3.06
55306,-1.37,-0.24,6.07,0.00,0.00,0.00,43.00,-20.56,-0.56,130.75,-3.44,-0.19
55406,0.17,0.79,13.04,0.00,0.00,0.00,33.25,-27.56,5.75,130.69,-0.25,3.38
55506,-0.38,1.78,10.95,0.00,0.00,0.00,18.56,-2.75,-5.19,130.62,0.12,5.44
55606,0.08,0.47,9.82,0.00,0.00,0.00,1.62,9.69,-1.44,131.00,-0.38,6.12
55706,-0.14,1.01,10.97,0.00,0.00,0.00,-10.56,-0.44,1.31,130.94,-0.50,5.81
55806,0.22,0.60,12.45,0.00,0.00,0.00,-27.50,11.38,-2.75,130.94,-1.00,3.88
55906,-0.56,0.29,8.53,0.00,0.00,0.00,-36.50,25.12,-0.12,130.62,-3.00,0.12
56006,-0.53,-1.00,6.84,0.00,0.00,0.00,-19.25,18.94,0.31,130.38,-4.75,-2.94
56106,-0.67,-0.85,7.57,0.00,0.00,0.00,1.31,2.19,0.50,130.12,-5.31,-4.00
DHT22: T=21.6 C | RH=66.0%
56206,-0.64,-0.73,7.55,0.00,0.00,0.00,12.12,-5.69,-4.88,130.19,-5.12,-3.25
56306,-1.52,-0.30,6.58,0.00,0.00,0.00,30.62,-3.06,2.62,130.56,-4.44,-1.19
56407,0.64,-0.27,11.80,0.00,0.00,0.00,39.50,-25.81,5.88,130.69,-1.38,2.50
56507,-0.11,1.14,11.44,0.00,0.00,0.00,23.31,-5.69,-2.56,130.81,0.00,5.81
56608,0.10,1.18,11.60,0.00,0.00,0.00,6.00,7.62,-1.75,131.00,-0.06,6.88
56708,-0.22,1.41,11.42,0.00,0.00,0.00,-20.81,7.56,0.00,130.94,-0.81,5.94
56809,-0.17,0.56,10.24,0.00,0.00,0.00,-40.31,15.94,0.88,130.94,-2.00,2.81
56909,-0.90,-0.19,8.44,0.00,0.00,0.00,-35.12,10.25,0.50,130.88,-3.75,-0.31
57009,-0.61,-0.29,8.13,0.00,0.00,0.00,-18.31,3.94,-2.00,131.06,-4.56,-2.06
57109,-1.12,-0.46,7.89,0.00,0.00,0.00,-4.56,3.69,1.44,130.94,-5.00,-3.00
57207,-0.82,-0.45,7.71,0.00,0.00,0.00,12.94,1.31,-2.56,131.06,-4.94,-2.44
57306,-1.96,0.10,6.46,0.00,0.00,0.00,27.62,-0.56,4.00,130.94,-4.88,-0.31
57406,0.40,0.30,10.88,0.00,0.00,0.00,35.38,-17.31,3.81,131.19,-2.31,2.94
57506,0.08,1.21,12.28,0.00,0.00,0.00,27.88,-25.69,-4.75,131.12,-0.81,5.94
57607,0.15,1.43,12.63,0.00,0.00,0.00,1.44,6.81,1.88,131.25,-0.38,7.19
57707,-0.22,1.13,11.33,0.00,0.00,0.00,-24.12,16.94,-1.81,131.19,-1.56,5.56
57807,-0.16,0.52,10.62,0.00,0.00,0.00,-34.44,9.50,1.31,131.00,-2.62,2.62
57908,-0.93,-0.31,7.74,0.00,0.00,0.00,-23.75,12.62,4.94,130.56,-3.69,-0.75
58008,-0.63,-0.45,7.37,0.00,0.00,0.00,-15.50,0.25,-0.31,130.38,-4.12,-2.88
58109,-0.43,-0.92,7.80,0.00,0.00,0.00,-4.38,13.06,-0.69,130.44,-4.62,-3.56
58209,-1.40,0.19,7.32,0.00,0.00,0.00,20.25,2.94,-3.56,130.44,-4.75,-2.19
58308,-0.75,-0.13,9.83,0.00,0.00,0.00,27.81,-25.75,-1.00,130.94,-3.56,0.25
58407,-1.27,1.42,10.90,0.00,0.00,0.00,26.69,-11.50,6.75,130.88,-2.00,2.75
58506,0.56,0.74,11.56,0.00,0.00,0.00,14.75,-20.50,-0.94,131.00,-0.75,5.00
58606,-0.13,0.65,9.98,0.00,0.00,0.00,-1.06,6.94,5.19,130.69,-0.31,5.69
DHT22: T=21.6 C | RH=66.0%
58706,-0.44,1.27,11.78,0.00,0.00,0.00,-18.44,3.44,5.00,130.25,-0.06,4.69
58807,0.33,-0.61,9.76,0.00,0.00,0.00,-32.19,21.62,-1.06,130.12,-1.31,1.75
58907,-0.33,-0.07,7.24,0.00,0.00,0.00,-33.19,7.50,2.62,129.94,-2.69,-1.81
59008,-1.22,-0.14,7.72,0.00,0.00,0.00,-11.62,3.75,-0.69,129.75,-3.31,-3.62
59108,-1.01,-0.60,7.68,0.00,0.00,0.00,-0.31,0.62,-4.94,130.12,-3.44,-4.12
59208,-1.06,-0.41,8.07,0.00,0.00,0.00,17.12,-3.19,-9.50,130.69,-3.06,-3.31
59309,-0.26,-0.39,8.84,0.00,0.00,0.00,29.31,-11.69,-4.38,131.38,-2.50,-1.06
59409,0.22,0.16,11.23,0.00,0.00,0.00,26.62,-13.00,0.12,131.81,-1.25,1.06
59508,0.02,0.12,11.02,0.00,0.00,0.00,21.06,-8.50,-7.62,132.06,-0.88,3.62
59606,-0.11,0.76,10.55,0.00,0.00,0.00,7.19,-0.25,-0.94,132.38,-0.44,4.75
59706,-0.26,0.77,11.02,0.00,0.00,0.00,1.25,-4.12,-0.88,132.56,-0.38,5.19
59806,-0.22,0.83,11.13,0.00,0.00,0.00,-24.56,0.12,1.75,132.62,-0.19,3.88
59906,0.23,0.02,9.52,0.00,0.00,0.00,-28.81,10.56,-5.94,132.88,-0.69,1.00
60006,-0.65,0.28,9.03,0.00,0.00,0.00,-38.56,14.81,-9.75,133.00,-1.31,-1.75
60106,-1.26,-0.48,8.93,0.00,0.00,0.00,-5.06,50.31,-1.19,133.56,-1.81,-3.75
60206,-0.84,-1.00,7.54,0.00,0.00,0.00,-0.75,1.56,7.62,133.12,-2.69,-4.00
60306,-0.33,-0.79,8.06,0.00,0.00,0.00,12.06,8.56,0.75,132.62,-3.00,-2.94
60406,-0.04,-0.50,8.16,0.00,0.00,0.00,19.25,-53.88,8.81,132.50,-0.44,-1.44
60506,0.45,0.00,10.09,0.00,0.00,0.00,30.75,17.81,-3.88,132.38,2.19,0.88
60606,0.07,1.01,10.94,0.00,0.00,0.00,35.06,7.25,14.12,131.50,0.31,4.44
60706,-0.23,1.03,12.01,0.00,0.00,0.00,8.06,26.69,0.88,130.31,-1.44,5.69
60806,-0.40,1.04,12.02,0.00,0.00,0.00,-26.25,-10.81,-5.62,130.75,-1.31,4.69
60906,-0.07,0.49,10.67,0.00,0.00,0.00,-45.31,8.12,-14.69,132.12,-1.06,1.81
61006,0.25,-0.10,8.91,0.00,0.00,0.00,-10.50,-4.31,8.12,132.31,0.56,-0.88
61106,-0.72,-1.41,6.46,0.00,0.00,0.00,-44.81,8.56,-4.06,132.50,0.50,-4.38
DHT22: T=21.6 C | RH=66.0%
61206,-0.28,-1.22,6.01,0.00,0.00,0.00,-0.19,0.75,4.31,132.75,-0.31,-6.88
61306,-0.55,-0.99,7.70,0.00,0.00,0.00,33.06,-8.38,-1.00,132.75,0.00,-5.00
61406,-0.24,-0.58,9.59,0.00,0.00,0.00,17.69,4.00,3.19,132.69,0.00,-2.44
61506,0.28,-0.08,10.10,0.00,0.00,0.00,19.19,1.56,-4.25,133.06,-0.19,-0.44
61606,-0.50,-0.53,11.22,0.00,0.00,0.00,7.50,17.38,2.50,133.00,-1.19,0.81
61706,0.33,1.01,12.99,0.00,0.00,0.00,-18.62,-18.06,4.00,133.12,-1.31,0.25
61806,-0.17,-0.46,11.47,0.00,0.00,0.00,-22.06,-3.56,7.69,132.44,0.31,-1.38
61906,-0.18,-1.35,10.83,0.00,0.00,0.00,-33.00,0.38,-2.31,132.31,0.44,-3.75
62006,0.21,-1.03,9.53,0.00,0.00,0.00,-43.00,9.88,-0.81,132.44,0.62,-7.00
62106,-0.17,-1.52,7.95,0.00,0.00,0.00,-15.44,7.88,-1.94,132.44,0.38,-9.56
62206,-0.61,-1.64,7.24,0.00,0.00,0.00,-2.75,13.56,-3.19,132.88,-0.44,-10.62
62306,-0.68,-1.61,7.21,0.00,0.00,0.00,17.88,-4.31,3.38,132.81,-0.31,-9.75
62407,-0.07,-1.49,8.23,0.00,0.00,0.00,30.06,-13.50,-5.12,133.00,0.56,-7.38
62507,0.19,-1.29,9.84,0.00,0.00,0.00,29.31,8.56,-5.38,133.31,0.81,-3.81
62608,0.12,0.00,11.93,0.00,0.00,0.00,17.56,6.31,1.44,133.38,0.06,-1.69
62708,0.02,-0.29,12.31,0.00,0.00,0.00,0.00,-5.00,0.88,133.44,0.00,-1.06
62809,-0.09,-0.80,10.88,0.00,0.00,0.00,-22.44,-9.81,0.38,133.31,0.75,-2.62
62909,0.15,-1.06,9.11,0.00,0.00,0.00,-22.19,-5.94,-1.56,133.44,1.38,-4.81
63009,0.18,-1.05,8.33,0.00,0.00,0.00,-28.25,-1.12,-3.25,133.81,1.50,-7.44
63108,-0.28,-1.92,6.69,0.00,0.00,0.00,-23.25,19.75,1.50,133.75,0.75,-9.69
63207,-0.18,-1.26,6.18,0.00,0.00,0.00,2.06,-4.25,-2.38,134.06,-0.12,-10.50
63306,-0.39,-1.61,8.09,0.00,0.00,0.00,19.06,-12.00,0.88,133.75,0.50,-9.00
63406,0.87,-1.01,8.16,0.00,0.00,0.00,35.94,-9.00,-0.31,133.81,1.81,-6.56
63506,-0.24,-0.59,10.70,0.00,0.00,0.00,33.19,20.31,-0.06,133.62,0.50,-3.44
63607,-0.04,0.19,13.73,0.00,0.00,0.00,16.31,-6.50,-2.44,133.94,-0.69,-1.19
DHT22: T=21.6 C | RH=66.0%
63707,0.15,-0.34,12.28,0.00,0.00,0.00,-18.19,-9.12,3.88,133.50,0.12,-1.31
63808,0.10,-0.77,9.90,0.00,0.00,0.00,-30.44,-6.56,3.38,133.19,1.12,-3.88
63908,0.00,-1.07,8.64,0.00,0.00,0.00,-40.19,-2.19,1.31,133.12,1.50,-7.06
64008,0.08,-1.71,7.04,0.00,0.00,0.00,-18.38,11.44,4.06,133.00,1.38,-9.69
64109,-0.48,-1.86,6.45,0.00,0.00,0.00,0.94,5.94,0.06,133.12,0.00,-11.06
64209,-0.45,-1.61,7.54,0.00,0.00,0.00,17.56,-3.94,0.94,133.19,-0.12,-10.06
64308,0.71,-1.10,8.11,0.00,0.00,0.00,33.75,-12.06,-1.12,133.38,0.62,-7.69
64407,0.25,-0.76,9.54,0.00,0.00,0.00,34.88,-6.44,-0.69,133.19,0.75,-4.50
64506,-0.22,-0.48,10.86,0.00,0.00,0.00,31.88,8.75,4.06,133.19,0.50,-1.44
64606,-0.09,0.03,11.66,0.00,0.00,0.00,14.94,1.00,-1.25,133.06,-0.25,0.69
64706,-0.46,0.18,12.39,0.00,0.00,0.00,-15.94,4.81,0.50,133.19,-0.81,0.56
64807,-0.45,-0.24,11.75,0.00,0.00,0.00,-36.62,-5.81,-6.31,133.44,-0.75,-2.00
64907,0.08,-1.00,8.80,0.00,0.00,0.00,-43.25,-5.44,-2.62,133.88,0.12,-5.69
65008,-0.27,-1.86,7.44,0.00,0.00,0.00,-28.88,5.44,-3.69,134.06,0.50,-9.12
65108,-0.08,-1.35,6.79,0.00,0.00,0.00,-8.19,5.62,-2.44,134.56,0.00,-10.75
65208,-0.24,-1.50,7.26,0.00,0.00,0.00,13.00,-2.19,-0.44,134.62,0.00,-10.31
65308,-0.48,-1.35,8.93,0.00,0.00,0.00,35.50,-9.62,0.00,134.69,0.50,-7.62
65408,0.33,-0.98,9.49,0.00,0.00,0.00,36.81,2.88,0.25,134.88,0.94,-4.31
65507,0.18,-0.07,11.02,0.00,0.00,0.00,30.12,11.69,-0.94,134.88,0.69,-0.75
65606,-0.45,0.15,12.37,0.00,0.00,0.00,9.88,7.56,2.06,134.75,-0.44,1.06
65706,-0.30,0.12,11.92,0.00,0.00,0.00,-15.75,-8.19,0.75,134.69,-0.81,0.31
65806,-0.03,-0.60,9.86,0.00,0.00,0.00,-27.88,-0.62,-0.50,134.62,-0.19,-1.88
65906,-0.37,-1.00,8.73,0.00,0.00,0.00,-34.75,0.31,-0.50,134.69,-0.25,-5.19
66006,-0.08,-0.94,8.42,0.00,0.00,0.00,-26.81,3.81,-4.69,135.06,-0.25,-8.00
66106,-0.36,-1.55,6.37,0.00,0.00,0.00,-9.06,-1.44,-0.25,134.88,-0.50,-9.75
DHT22: T=21.6 C | RH=66.0%
66206,-0.22,-1.68,6.34,0.00,0.00,0.00,18.12,-11.12,1.88,134.81,0.00,-9.00
66306,-0.12,-0.91,8.92,0.00,0.00,0.00,36.06,-3.38,-3.50,134.94,0.56,-6.75
66406,0.37,-0.63,9.38,0.00,0.00,0.00,45.94,-5.12,3.81,134.81,1.44,-2.44
66506,0.07,0.20,13.47,0.00,0.00,0.00,17.19,5.00,-5.19,134.88,0.62,0.44
66606,0.22,0.28,12.91,0.00,0.00,0.00,-9.31,3.81,2.12,135.06,0.38,0.94
66706,-0.08,-0.30,10.66,0.00,0.00,0.00,-29.75,-1.69,4.81,134.75,0.44,-1.12
66806,-0.04,-1.00,9.42,0.00,0.00,0.00,-25.75,5.62,1.75,134.50,0.38,-4.12
66906,-0.56,-1.44,7.95,0.00,0.00,0.00,-33.25,-2.88,-0.81,134.19,0.31,-7.56
67006,-0.27,-0.91,7.08,0.00,0.00,0.00,-8.00,11.50,-1.56,134.50,-0.25,-9.50
67106,-0.10,-1.25,7.72,0.00,0.00,0.00,12.31,-1.44,1.12,134.56,-0.50,-9.12
67206,-0.15,-1.81,8.62,0.00,0.00,0.00,23.25,-16.00,-1.88,134.31,0.25,-7.31
67306,0.24,-1.10,9.04,0.00,0.00,0.00,30.88,-4.19,1.62,134.19,1.12,-4.56
67406,0.52,-0.11,9.22,0.00,0.00,0.00,37.94,-4.31,-5.44,134.50,1.44,-1.31
67506,0.13,0.58,12.73,0.00,0.00,0.00,16.50,-3.62,-5.38,135.06,0.94,0.56
67606,0.37,0.52,12.29,0.00,0.00,0.00,-5.50,-8.44,-0.56,135.19,1.69,0.88
67706,0.16,-0.43,10.45,0.00,0.00,0.00,-22.62,-5.69,1.12,134.94,2.38,-0.56
67806,0.15,-0.86,8.76,0.00,0.00,0.00,-39.50,6.12,-1.75,135.00,2.25,-3.50
67906,-0.07,-1.10,7.28,0.00,0.00,0.00,-25.19,5.56,0.31,135.31,1.81,-6.75
68006,-0.12,-0.89,7.18,0.00,0.00,0.00,-5.88,4.81,0.62,135.31,1.06,-8.31
68106,-0.03,-1.29,7.94,0.00,0.00,0.00,15.69,-2.06,3.56,135.12,0.88,-7.69
68206,0.34,-1.13,8.61,0.00,0.00,0.00,37.00,-11.94,0.31,134.75,1.25,-5.38
68307,0.11,-1.41,9.69,0.00,0.00,0.00,38.50,-11.06,-2.75,134.75,1.88,-1.88
68407,0.00,-0.18,11.95,0.00,0.00,0.00,27.81,3.81,-3.31,135.06,1.81,0.94
68507,0.16,0.03,11.90,0.00,0.00,0.00,-0.81,5.38,3.62,135.00,1.50,1.81
68608,-0.02,0.38,11.86,0.00,0.00,0.00,-17.31,-0.62,2.19,134.88,1.06,0.69
DHT22: T=21.6 C | RH=66.0%
68708,0.23,-0.25,10.05,0.00,0.00,0.00,-37.19,4.19,-0.69,134.81,1.00,-1.62
68809,-0.10,-1.19,8.59,0.00,0.00,0.00,-44.06,5.56,-3.62,135.00,0.56,-5.38
68909,-0.32,-1.48,7.99,0.00,0.00,0.00,-27.62,7.06,-4.12,135.38,0.00,-8.75
69009,-0.15,-1.34,6.93,0.00,0.00,0.00,-5.94,4.75,0.81,135.50,-0.56,-9.88
69108,-0.35,-1.63,7.38,0.00,0.00,0.00,19.69,-11.69,2.00,135.25,-0.19,-9.12
69207,0.56,-0.87,8.71,0.00,0.00,0.00,27.75,-11.44,-3.62,135.31,1.12,-6.56
69306,0.34,-0.95,9.89,0.00,0.00,0.00,46.50,-5.56,-3.12,135.19,1.62,-2.62
69406,-0.13,0.01,12.48,0.00,0.00,0.00,10.19,7.62,-0.44,135.25,1.06,0.00
69506,0.13,0.17,11.99,0.00,0.00,0.00,0.50,-0.19,1.31,135.31,1.00,0.69
69607,0.16,-0.17,11.11,0.00,0.00,0.00,-24.44,-3.75,3.81,135.00,1.19,-0.81
69707,0.10,-0.77,9.27,0.00,0.00,0.00,-19.62,8.56,-1.56,134.94,1.38,-2.69
69808,-0.01,-0.85,8.34,0.00,0.00,0.00,-32.25,6.25,0.00,134.88,0.69,-5.50
69908,-0.24,-1.13,7.08,0.00,0.00,0.00,-28.38,8.38,4.56,134.88,-0.06,-8.44
70009,-0.44,-1.20,7.09,0.00,0.00,0.00,-3.69,4.62,-2.75,134.94,-0.81,-9.81
70109,-0.18,-1.62,7.74,0.00,0.00,0.00,15.12,-11.44,1.00,134.94,0.00,-8.81
70209,0.47,-1.27,8.60,0.00,0.00,0.00,30.38,-15.06,-3.00,134.94,1.25,-7.06
70308,0.40,-0.92,9.45,0.00,0.00,0.00,41.69,-8.44,-6.00,135.06,2.00,-3.62
70407,-0.05,-0.15,12.41,0.00,0.00,0.00,23.75,14.50,1.94,135.06,0.88,-0.56
70506,-0.22,-0.01,12.60,0.00,0.00,0.00,9.12,7.69,1.75,134.81,0.06,1.38
70606,-0.12,0.09,11.79,0.00,0.00,0.00,-26.81,-0.88,1.38,134.75,-0.06,0.38
70706,-0.05,-0.63,9.73,0.00,0.00,0.00,-32.88,-0.75,-0.94,134.75,0.12,-2.69
70807,-0.12,-0.82,9.07,0.00,0.00,0.00,-33.31,-2.06,-5.00,135.06,0.19,-5.94
70907,0.31,-1.12,7.54,0.00,0.00,0.00,-28.69,3.44,-3.50,135.62,0.25,-9.31
71008,-0.42,-2.04,6.91,0.00,0.00,0.00,-4.94,6.44,1.81,135.50,-0.50,-11.06
71108,-0.31,-1.35,7.59,0.00,0.00,0.00,9.62,-8.44,-0.06,135.50,-0.44,-10.88
DHT22: T=21.6 C | RH=66.0%
71208,-0.16,-1.57,7.82,0.00,0.00,0.00,24.69,-7.38,-0.31,135.44,0.06,-9.12
71309,0.33,-0.93,8.86,0.00,0.00,0.00,40.69,-6.75,-3.19,135.50,0.88,-5.81
71409,-0.14,-0.84,9.91,0.00,0.00,0.00,42.00,10.19,4.56,135.25,0.50,-2.25
71508,-0.22,0.33,12.85,0.00,0.00,0.00,16.19,2.31,3.38,135.19,-0.62,0.12
71607,-0.18,0.22,11.84,0.00,0.00,0.00,-5.69,-8.94,4.19,134.81,-0.31,1.00
71706,-0.22,-0.29,11.42,0.00,0.00,0.00,-28.12,-6.62,-1.50,134.69,0.25,-0.75
71806,0.51,-0.68,8.89,0.00,0.00,0.00,-41.69,-2.50,-4.50,135.06,0.94,-4.06
71906,-0.34,-0.99,8.42,0.00,0.00,0.00,-41.81,8.50,-0.69,135.12,0.31,-8.25
72006,-0.36,-1.51,5.92,0.00,0.00,0.00,-8.06,7.56,-3.44,135.50,0.00,-10.69
72106,-0.26,-1.65,6.85,0.00,0.00,0.00,17.06,-5.81,2.75,135.38,-0.06,-10.38
72206,0.26,-1.48,8.23,0.00,0.00,0.00,29.62,-15.25,0.94,135.19,0.88,-8.00
72306,0.50,-1.08,8.96,0.00,0.00,0.00,40.06,1.62,1.94,135.00,1.50,-4.75
72406,0.07,-0.33,10.87,0.00,0.00,0.00,28.50,3.25,-4.25,135.06,0.62,-1.19
72506,-0.39,0.42,13.29,0.00,0.00,0.00,3.81,-6.12,2.31,135.56,-0.12,0.25
72606,0.04,0.25,11.50,0.00,0.00,0.00,-19.31,-6.44,1.50,135.31,0.81,-0.38
72706,-0.03,-0.98,10.55,0.00,0.00,0.00,-34.62,-4.25,0.12,135.19,1.25,-3.12
72806,0.51,-0.90,8.39,0.00,0.00,0.00,-28.81,-4.56,-6.81,135.50,1.75,-6.44
72906,-0.28,-1.87,6.61,0.00,0.00,0.00,-19.75,5.31,0.31,135.69,2.00,-9.12
73006,0.04,-1.30,6.68,0.00,0.00,0.00,7.00,-2.25,0.19,136.06,1.75,-9.88
73106,0.00,-1.31,8.21,0.00,0.00,0.00,21.12,-0.31,1.38,135.94,1.88,-8.44
73206,0.66,-0.60,8.29,0.00,0.00,0.00,28.75,-6.50,-2.19,136.12,2.25,-6.00
73306,0.51,-0.70,8.62,0.00,0.00,0.00,33.56,11.12,3.25,135.88,2.06,-2.88
73406,-0.19,0.00,11.46,0.00,0.00,0.00,26.81,13.50,-1.00,135.62,0.69,0.12
73506,0.00,0.07,11.86,0.00,0.00,0.00,6.50,-0.19,1.00,135.62,0.12,1.62
73606,-0.10,0.11,11.27,0.00,0.00,0.00,-23.00,-3.38,0.44,135.62,0.31,0.38
DHT22: T=21.6 C | RH=66.0%
73706,0.01,-0.43,10.09,0.00,0.00,0.00,-23.25,-5.50,0.56,135.56,0.69,-2.00
73806,-0.08,-0.94,9.73,0.00,0.00,0.00,-35.50,0.50,-2.62,135.62,0.75,-4.81
73906,-0.04,-1.69,7.57,0.00,0.00,0.00,-44.88,-6.38,-1.38,135.75,1.06,-8.94
74006,-0.08,-1.42,7.63,0.00,0.00,0.00,-12.38,7.94,-4.62,136.44,0.88,-11.00
74106,0.12,-1.18,7.38,0.00,0.00,0.00,14.50,-5.50,-2.38,136.69,0.88,-10.69
74206,-0.16,-1.60,8.01,0.00,0.00,0.00,27.19,-7.56,1.06,136.69,1.50,-8.50
74306,-0.27,-0.99,9.36,0.00,0.00,0.00,38.12,2.75,-1.19,136.69,1.81,-5.06
74407,0.33,-0.36,9.32,0.00,0.00,0.00,38.00,18.19,3.31,136.75,1.31,-1.19
74507,-0.02,0.06,13.06,0.00,0.00,0.00,14.69,5.69,1.56,136.38,-0.12,1.12
74608,-0.15,0.16,11.96,0.00,0.00,0.00,-4.69,-3.88,6.25,136.00,0.00,1.56
74708,-0.25,-0.29,11.18,0.00,0.00,0.00,-25.00,-3.56,0.31,135.69,0.31,0.06
74809,0.12,-0.52,10.45,0.00,0.00,0.00,-45.00,-2.44,-1.94,135.88,0.44,-3.38
74909,0.22,-1.02,8.11,0.00,0.00,0.00,-37.94,-6.31,-3.81,136.19,1.00,-7.06
75009,-0.09,-1.41,7.06,0.00,0.00,0.00,-24.50,9.88,-1.25,136.38,0.19,-10.00
75109,-0.50,-1.65,6.70,0.00,0.00,0.00,-5.31,3.25,0.06,136.31,-0.56,-11.12
75208,-0.62,-1.79,7.58,0.00,0.00,0.00,24.25,-2.44,1.38,136.38,-0.31,-9.88
75306,0.18,-1.23,8.63,0.00,0.00,0.00,38.38,-6.38,-6.56,136.56,0.19,-6.75
75406,0.63,-0.02,10.76,0.00,0.00,0.00,41.44,12.62,-3.25,136.75,0.06,-2.75
75506,-0.08,0.21,10.77,0.00,0.00,0.00,27.75,4.44,7.75,136.38,-0.88,0.38
75606,-0.64,-0.11,12.42,0.00,0.00,0.00,13.81,4.88,2.75,135.88,-1.50,2.38
75707,-0.71,0.18,13.20,0.00,0.00,0.00,-16.44,-13.75,-0.12,135.69,-1.25,2.12
75807,0.04,-1.36,9.47,0.00,0.00,0.00,-38.06,-4.75,1.19,135.75,-0.12,-0.56
75908,-0.45,-1.25,9.08,0.00,0.00,0.00,-42.75,2.88,-2.88,135.81,-0.38,-4.75
76008,-0.49,-1.22,7.34,0.00,0.00,0.00,-23.75,8.81,-1.81,136.12,-0.88,-8.00
76109,-0.47,-1.60,6.29,0.00,0.00,0.00,-3.38,8.81,1.94,136.19,-1.56,-9.25
DHT22: T=21.6 C | RH=66.0%
76209,-0.56,-2.05,7.63,0.00,0.00,0.00,22.38,2043.62,-3.19,136.38,-1.62,-7.94
76309,0.05,-0.94,8.69,0.00,0.00,0.00,37.44,1.50,0.81,136.56,-1.50,-5.25
76408,-0.42,-0.38,9.63,0.00,0.00,0.00,40.88,-5.94,0.25,136.56,-2.06,-2.06
76507,-0.76,0.04,12.26,0.00,0.00,0.00,20.25,-1.75,2.56,136.31,-2.38,0.75
76606,-0.17,0.52,12.43,0.00,0.00,0.00,3.69,-10.81,5.38,136.31,-1.62,1.94
76706,-0.31,-0.10,11.14,0.00,0.00,0.00,-29.38,-10.44,5.12,135.50,-0.25,0.38
76806,-0.36,-0.67,9.03,0.00,0.00,0.00,-3.50,-10.94,11.62,135.12,0.81,0.00
76907,0.05,-1.06,8.31,0.00,0.00,0.00,-31.75,5.12,8.38,133.69,0.88,-4.00
77007,-0.11,-0.75,7.31,0.00,0.00,0.00,-34.44,15.88,0.38,133.75,-0.12,-6.94
77108,-0.43,-1.19,6.65,0.00,0.00,0.00,7.69,2.75,-0.62,133.88,-0.94,-8.12
77208,-0.68,-1.79,8.28,0.00,0.00,0.00,25.62,-5.44,-2.50,134.06,-0.88,-6.56
77308,-0.22,-0.71,8.84,0.00,0.00,0.00,22.75,-0.12,1.38,134.31,-0.56,-4.12
77408,-0.03,-0.29,9.93,0.00,0.00,0.00,31.31,8.00,6.31,134.19,-0.69,-1.12
77508,-0.60,0.13,12.46,0.00,0.00,0.00,19.38,3.69,6.62,133.38,-1.38,1.06
77607,-0.69,0.24,12.71,0.00,0.00,0.00,14.62,-11.44,-5.12,133.88,-1.31,3.56
77706,-0.51,-0.10,11.50,0.00,0.00,0.00,-33.75,-3.62,5.00,133.81,-0.56,1.88
77806,-0.20,-0.47,10.07,0.00,0.00,0.00,-27.56,-1.12,-4.69,133.94,-0.25,-1.31
77906,-0.12,-0.71,8.98,0.00,0.00,0.00,-34.69,-3.12,-2.19,134.19,0.00,-4.69
78006,0.12,-1.20,6.80,0.00,0.00,0.00,-21.44,-9.06,1.44,134.25,0.19,-7.56
78106,-0.33,-1.14,6.97,0.00,0.00,0.00,19.44,18.62,-13.31,134.81,-0.19,-6.94
78206,-0.08,-1.00,7.51,0.00,0.00,0.00,-1.75,3.62,16.81,134.25,-0.19,-5.88
78306,-0.18,-0.73,9.62,0.00,0.00,0.00,19.94,2.94,11.81,132.69,-0.81,-4.69
78406,-0.54,-0.44,9.42,0.00,0.00,0.00,39.19,-2.25,-3.12,132.50,0.44,-1.00
78506,-0.35,0.29,10.15,0.00,0.00,0.00,21.69,23.62,6.38,132.12,-1.25,2.44
78606,-0.87,0.96,12.61,0.00,0.00,0.00,16.50,-4.50,14.06,131.25,-2.94,4.38
DHT22: T=21.6 C | RH=66.0%
78706,-0.79,0.64,12.41,0.00,0.00,0.00,-25.12,-10.50,-0.62,130.88,-3.12,4.25
78806,-0.35,0.19,10.43,0.00,0.00,0.00,-29.69,-39.75,5.12,130.69,-0.44,1.31
78906,0.04,-0.64,8.67,0.00,0.00,0.00,-43.50,12.62,-1.88,130.31,0.75,-2.00
79006,-0.54,-0.84,8.28,0.00,0.00,0.00,-29.31,5.62,-1.50,130.69,0.88,-5.62
79106,-0.42,-1.05,7.72,0.00,0.00,0.00,-11.06,-15.62,4.69,131.12,-0.50,-7.88
79206,0.08,-0.95,7.52,0.00,0.00,0.00,13.62,3.69,-0.62,130.94,0.62,-7.50
79306,-0.05,-1.30,7.85,0.00,0.00,0.00,19.69,-7.38,-6.69,131.38,3.56,-5.88
79406,0.03,-1.14,8.21,0.00,0.00,0.00,13.69,-1.31,-1.31,132.19,2.62,-4.00
79506,0.44,-0.07,10.54,0.00,0.00,0.00,15.25,10.31,11.88,130.50,2.44,-2.56
79606,0.13,-0.37,10.40,0.00,0.00,0.00,33.44,31.94,17.38,129.62,0.06,0.38
79706,-0.62,-0.22,12.65,0.00,0.00,0.00,-10.25,-16.88,-4.75,129.31,-1.69,0.31
79806,-0.08,-0.14,12.40,0.00,0.00,0.00,7.69,9.44,1.56,129.38,1.06,-0.25
79906,0.57,-0.22,10.29,0.00,0.00,0.00,-75.62,15.19,1.12,129.31,4.00,-5.44
80006,-0.25,-0.71,8.35,0.00,0.00,0.00,21.94,23.81,3.69,128.69,1.81,-7.75
80106,-0.81,-0.73,7.89,0.00,0.00,0.00,9.94,16.88,-6.38,128.69,0.06,-8.38
80206,-0.10,-2.12,6.77,0.00,0.00,0.00,22.62,-5.50,-9.75,129.31,-0.56,-7.12
80306,0.38,-1.71,7.99,0.00,0.00,0.00,16.75,-11.62,-10.56,130.00,0.19,-6.38
80406,-0.76,-0.06,10.46,0.00,0.00,0.00,30.56,-26.56,7.44,130.44,2.00,-4.38
80507,0.79,-0.70,10.56,0.00,0.00,0.00,20.62,-21.00,-8.00,130.81,4.12,-1.81
80607,0.48,0.23,11.31,0.00,0.00,0.00,17.94,-8.44,10.12,130.81,4.69,0.62
80708,0.55,0.34,12.72,0.00,0.00,0.00,-5.88,2.06,5.81,130.25,4.69,1.12
80808,0.81,-0.15,10.88,0.00,0.00,0.00,-32.50,7.94,3.75,129.94,3.75,-0.25
80908,-0.16,-0.16,9.21,0.00,0.00,0.00,-35.69,11.88,-1.75,130.06,2.56,-2.75
81009,-0.31,-0.78,8.38,0.00,0.00,0.00,-36.75,1.56,11.25,130.06,1.12,-6.62
81109,-0.08,-1.15,7.13,0.00,0.00,0.00,-35.38,-7.88,1.38,129.88,0.31,-8.31
DHT22: T=21.6 C | RH=66.0%
81209,0.08,-2.40,7.14,0.00,0.00,0.00,6.50,-12.50,3.62,130.06,-0.31,-7.75
81308,-0.69,-0.82,8.86,0.00,0.00,0.00,33.81,12.56,11.50,129.44,0.12,-6.25
81407,-0.14,-0.41,10.28,0.00,0.00,0.00,-1.81,-14.06,-5.69,129.12,0.94,-4.25
81506,-0.10,0.06,11.01,0.00,0.00,0.00,34.50,-21.44,-1.38,129.25,1.94,-2.00
81606,0.09,0.42,10.41,0.00,0.00,0.00,28.19,-1.88,-1.19,129.12,2.12,1.19
81706,0.33,0.60,13.18,0.00,0.00,0.00,18.19,-32.38,3.56,128.94,2.75,3.25
81807,0.11,0.51,12.60,0.00,0.00,0.00,-30.56,-3.00,0.56,128.94,3.56,2.12
81907,0.22,-0.24,10.05,0.00,0.00,0.00,-27.00,21.69,0.88,129.19,2.38,-0.75
82008,0.13,-0.88,8.54,0.00,0.00,0.00,-28.81,19.38,8.50,128.88,0.38,-3.62
82108,-0.86,-0.27,8.40,0.00,0.00,0.00,-9.56,13.75,1.25,128.38,-1.00,-5.56
82209,-0.31,-1.23,6.65,0.00,0.00,0.00,4.56,3.00,-2.38,128.50,-1.62,-5.94
82309,-0.21,-1.01,7.38,0.00,0.00,0.00,20.88,-7.12,-2.69,128.50,-0.94,-4.56
82409,0.01,-0.56,9.67,0.00,0.00,0.00,31.25,-41.25,7.44,128.06,0.44,-1.81
82508,-0.70,0.73,10.18,0.00,0.00,0.00,27.75,-36.25,-2.38,127.81,2.88,0.88
82607,1.51,-0.59,10.10,0.00,0.00,0.00,7.75,-1.19,-7.44,128.69,5.19,3.25
82706,0.59,1.05,11.99,0.00,0.00,0.00,-2.81,5.75,6.75,128.44,5.62,4.00
82806,0.22,0.91,11.18,0.00,0.00,0.00,-33.88,19.69,-0.12,128.19,4.50,2.12
82906,0.45,-0.72,9.11,0.00,0.00,0.00,-30.75,28.75,-6.62,129.12,1.44,-0.31
83007,-0.46,-0.59,8.42,0.00,0.00,0.00,-31.69,27.56,-2.94,129.44,-0.69,-3.69
83107,-0.83,-0.85,6.69,0.00,0.00,0.00,-13.50,7.50,-2.31,129.56,-2.31,-6.19
83208,-0.26,-1.36,6.74,0.00,0.00,0.00,9.19,-0.19,0.00,129.62,-2.25,-6.38
83308,-1.09,-0.49,7.48,0.00,0.00,0.00,42.19,9.81,-7.00,129.69,-2.12,-4.38
83409,-0.25,-0.80,8.83,0.00,0.00,0.00,35.75,-5.44,3.50,130.12,-2.75,0.56
83509,-0.82,0.55,10.38,0.00,0.00,0.00,24.75,-8.19,1.94,129.50,-1.06,3.06
83608,-0.07,0.56,9.88,0.00,0.00,0.00,46.88,15.88,-8.75,129.94,-1.12,6.88
DHT22: T=21.6 C | RH=66.0%
83707,0.10,0.57,11.84,0.00,0.00,0.00,-9.00,-11.62,7.88,129.81,-0.12,7.50
83806,-0.99,1.70,12.23,0.00,0.00,0.00,-24.44,6.31,0.44,129.00,0.06,6.50
83906,-0.47,0.28,9.99,0.00,0.00,0.00,-33.06,24.81,-7.88,129.31,-1.31,3.62
84006,-0.59,-0.32,7.99,0.00,0.00,0.00,-39.25,26.81,-3.06,129.56,-3.44,0.19
84106,-1.17,-0.24,6.89,0.00,0.00,0.00,-24.81,23.69,0.94,129.94,-6.00,-2.81
84206,-1.26,-1.11,7.14,0.00,0.00,0.00,6.19,-5.69,-0.81,130.25,-6.56,-3.62
84306,-0.79,-0.98,8.61,0.00,0.00,0.00,26.12,0.44,8.94,130.00,-6.25,-1.50
84406,-1.38,0.34,9.39,0.00,0.00,0.00,34.19,-23.00,0.25,129.44,-5.19,1.06
84506,-0.97,0.65,12.35,0.00,0.00,0.00,31.44,-35.94,8.38,129.69,-2.50,5.31
84606,-0.64,0.92,11.79,0.00,0.00,0.00,7.25,-8.06,-7.88,129.62,-0.50,7.19
84706,0.09,0.94,10.93,0.00,0.00,0.00,1.19,-0.75,3.00,130.00,-0.56,7.69
84806,-0.90,1.57,12.22,0.00,0.00,0.00,-25.69,2.81,1.38,129.69,-0.62,6.06
84906,-0.28,0.00,9.86,0.00,0.00,0.00,-27.06,20.12,-0.38,129.62,-2.25,3.38
85006,-0.67,-0.30,8.98,0.00,0.00,0.00,-25.38,11.25,-0.19,129.38,-3.94,0.81
85106,-1.21,-0.48,6.80,0.00,0.00,0.00,-23.12,20.50,-7.00,129.62,-5.62,-1.75
85206,-1.15,-0.85,7.02,0.00,0.00,0.00,-8.25,4.62,-0.88,129.94,-6.19,-3.38
85306,-1.05,-0.94,7.15,0.00,0.00,0.00,19.00,-12.31,-1.69,130.00,-5.56,-2.94
85406,-1.36,-0.45,7.56,0.00,0.00,0.00,31.81,-16.38,-0.12,130.12,-4.62,-0.44
85506,-0.21,0.00,9.77,0.00,0.00,0.00,30.69,-27.06,8.69,130.00,-2.06,2.75
85606,-0.70,1.59,10.58,0.00,0.00,0.00,27.69,-11.69,3.50,129.25,-0.25,5.38
85706,-0.53,1.13,11.94,0.00,0.00,0.00,3.88,-8.12,-3.06,129.50,0.81,6.81
85806,-0.04,1.04,12.15,0.00,0.00,0.00,-16.00,5.69,0.31,129.62,0.69,6.50
85906,-0.43,0.75,12.04,0.00,0.00,0.00,-35.00,22.25,-0.62,129.50,-0.25,3.81
86006,-0.88,0.02,9.18,0.00,0.00,0.00,-40.56,33.25,-3.62,129.62,-3.62,0.62
86106,-1.30,-0.81,7.01,0.00,0.00,0.00,-31.19,9.88,-10.50,130.06,-6.19,-2.44
DHT22: T=21.6 C | RH=66.0%
86206,-0.76,-0.99,6.99,0.00,0.00,0.00,-2.94,-7.12,-4.62,130.56,-5.81,-4.12
86306,-0.66,-1.05,7.85,0.00,0.00,0.00,14.62,-1.19,1.00,130.75,-5.25,-3.81
86406,-1.29,-0.37,8.83,0.00,0.00,0.00,30.19,-17.44,5.50,130.44,-4.75,-1.62
86507,-0.69,0.45,10.34,0.00,0.00,0.00,34.38,-49.75,-3.19,129.81,-1.69,1.50
86607,0.27,0.33,11.89,0.00,0.00,0.00,20.12,4.19,5.31,129.75,0.12,4.00
86708,-0.07,0.97,12.33,0.00,0.00,0.00,-9.00,-5.62,1.44,129.50,0.94,4.25
86808,-0.17,0.45,11.44,0.00,0.00,0.00,-23.50,9.50,1.31,129.44,0.56,2.69
86908,-0.12,0.21,10.67,0.00,0.00,0.00,-40.50,22.56,-1.50,129.50,-0.69,-0.75
87009,-0.64,-0.61,8.30,0.00,0.00,0.00,-30.06,36.06,-4.19,129.69,-4.12,-3.81
87109,-1.20,-1.25,6.48,0.00,0.00,0.00,-12.44,17.50,-4.31,129.88,-6.50,-5.81
87209,-0.87,-1.36,7.36,0.00,0.00,0.00,7.50,-7.81,-3.25,129.94,-6.19,-6.00
87307,-0.95,-0.60,7.99,0.00,0.00,0.00,29.44,-4.25,2.75,129.81,-13.88,-4.00
87406,-1.57,0.44,8.83,0.00,0.00,0.00,33.94,-29.38,2.19,129.44,-5.00,-0.75
87506,-0.10,0.02,11.98,0.00,0.00,0.00,25.56,-42.81,-1.44,129.44,-1.69,2.25
87606,-0.31,0.54,12.01,0.00,0.00,0.00,29.12,-8.94,-0.38,129.56,-0.06,4.56
87707,-0.33,1.60,13.27,0.00,0.00,0.00,-10.75,2.81,-1.38,129.19,1.25,4.31
87807,-0.33,0.77,11.47,0.00,0.00,0.00,-31.31,16.38,-4.00,129.62,-0.06,2.50
87907,0.00,-0.52,9.23,0.00,0.00,0.00,-27.88,24.38,-2.38,130.06,-2.38,-0.69
88008,-1.00,-0.25,8.04,0.00,0.00,0.00,-29.12,15.94,-0.25,129.69,-4.88,-3.19
88108,-1.13,-0.56,7.38,0.00,0.00,0.00,-11.12,8.88,-0.25,129.75,-6.56,-4.81
88209,-1.35,-0.86,7.37,0.00,0.00,0.00,1.94,-9.81,1.38,129.88,-6.56,-4.94
88309,-0.90,-0.73,9.26,0.00,0.00,0.00,39.38,7.06,5.31,129.69,-6.25,-2.31
88408,-2.16,1.10,8.89,0.00,0.00,0.00,25.44,-33.44,13.12,128.81,-5.94,2.19
88507,-0.91,0.62,12.94,0.00,0.00,0.00,31.62,-62.44,6.19,128.81,-9.88,5.31
88607,0.11,1.55,12.47,0.00,0.00,0.00,7.56,0.50,-1.00,128.75,0.25,7.25
DHT22: T=21.6 C | RH=66.0%
88706,-0.25,0.94,11.07,0.00,0.00,0.00,-24.12,9.31,-3.44,128.81,-0.31,5.62
88806,-0.79,0.79,10.86,0.00,0.00,0.00,-39.50,17.38,1.06,128.75,-1.31,2.19
88907,-0.63,-0.33,8.84,0.00,0.00,0.00,-36.19,20.06,-3.62,129.12,-3.50,-1.62
89007,326.97,-1.40,6.69,0.00,0.00,0.00,-27.81,9.62,-8.38,129.81,-5.19,-5.00
89107,-0.32,-1.39,7.07,0.00,0.00,0.00,2.62,7.69,-2.12,130.12,-5.88,-6.12
89208,-1.18,-0.96,7.25,0.00,0.00,0.00,18.69,-3.94,2.94,129.88,-5.81,-5.00
89308,-1.01,-0.90,8.55,0.00,0.00,0.00,30.94,-2.31,7.00,129.62,-5.56,-2.62
89408,-0.90,0.03,9.13,0.00,0.00,0.00,16.94,-19.88,0.12,129.25,-4.19,-0.44
89508,-0.66,-0.30,10.94,0.00,0.00,0.00,30.69,-30.88,4.38,129.19,-2.50,1.94
89607,-0.49,1.06,11.17,0.00,0.00,0.00,16.50,-6.19,1.69,128.81,-0.38,4.00
89706,0.05,0.57,11.95,0.00,0.00,0.00,-1.81,-7.31,-0.06,128.88,0.00,4.62
89806,-0.46,0.56,11.07,0.00,0.00,0.00,-25.38,20.88,-1.38,128.69,-0.75,2.94
89906,-0.67,-0.16,9.93,0.00,0.00,0.00,-31.25,23.56,-0.12,128.81,-2.88,-0.06
90006,-1.15,-0.74,8.42,0.00,0.00,0.00,-31.94,23.44,-4.12,128.88,-5.31,-3.31
90106,-1.85,-0.31,7.43,0.00,0.00,0.00,-14.38,17.06,-4.25,129.12,-6.81,-5.81
90206,-0.76,-1.84,8.19,0.00,0.00,0.00,4.88,-6.31,-5.12,129.62,-7.06,-5.88
90306,-1.12,-0.74,7.87,0.00,0.00,0.00,27.44,-1.00,5.81,129.38,-6.88,-3.88
90406,-1.73,-0.25,8.56,0.00,0.00,0.00,35.75,-27.19,3.81,128.81,-6.25,-0.69
90506,0.16,0.41,11.11,0.00,0.00,0.00,32.06,-56.44,-8.81,128.81,-1.88,2.31
90606,0.14,0.75,10.07,0.00,0.00,0.00,14.56,-6.44,7.88,128.81,0.88,5.12
90706,-0.40,1.22,12.57,0.00,0.00,0.00,-13.75,5.50,2.50,128.12,1.31,5.31
90806,-0.45,0.64,11.08,0.00,0.00,0.00,-27.00,17.06,-3.19,128.12,-0.12,3.25
90906,-0.33,0.05,9.01,0.00,0.00,0.00,-30.81,27.50,-1.00,128.38,-2.06,0.50
91006,-0.54,-1.35,7.63,0.00,0.00,0.00,-34.38,21.19,-7.75,128.56,-4.06,-3.00
91106,-1.07,-1.12,8.55,0.00,0.00,0.00,-10.44,3.12,2.19,128.56,-4.75,-5.00
DHT22: T=21.6 C | RH=66.0%
91206,-1.54,-0.54,6.76,0.00,0.00,0.00,9.88,6.31,-0.50,128.38,-5.81,-4.88
91306,-1.01,-0.97,8.02,0.00,0.00,0.00,29.81,-3.88,2.25,128.44,-5.38,-3.06
91406,-0.90,-0.27,8.88,0.00,0.00,0.00,33.06,-16.44,-2.19,128.50,-4.50,0.00
91506,-1.17,0.00,10.17,0.00,0.00,0.00,33.12,-12.94,3.94,128.44,-2.56,3.00
91606,-0.41,1.50,12.01,0.00,0.00,0.00,8.69,-14.62,1.94,128.12,0.38,4.69
91706,-0.37,0.79,11.63,0.00,0.00,0.00,-10.00,4.56,-4.19,128.25,0.12,5.19
91806,-0.50,0.34,10.92,0.00,0.00,0.00,-29.44,12.44,-4.69,128.56,-0.75,3.12
91906,-0.54,-0.32,10.33,0.00,0.00,0.00,-46.19,32.94,-4.69,128.88,-2.75,-0.44
92006,-0.69,-1.81,6.13,0.00,0.00,0.00,-26.19,28.25,-10.88,129.38,-6.50,-4.00
92106,-1.07,-0.94,6.60,0.00,0.00,0.00,-3.44,-1.25,-2.69,129.56,-6.94,-5.62
92206,-0.75,-0.94,7.93,0.00,0.00,0.00,14.25,-1.94,0.38,129.50,-5.62,-5.06
92306,-1.10,-0.94,6.88,0.00,0.00,0.00,32.06,-3.12,1.69,129.38,-5.06,-2.81
92407,-0.82,0.40,8.34,0.00,0.00,0.00,33.25,-45.31,-6.62,129.56,-2.75,0.81
92507,-0.10,0.61,12.25,0.00,0.00,0.00,27.69,-10.81,-4.38,131.06,1.25,3.75
92607,-0.04,0.60,10.60,0.00,0.00,0.00,7.88,2.69,2.56,131.12,1.69,5.25
92708,0.01,0.90,11.74,0.00,0.00,0.00,-22.62,-4.00,6.00,130.75,1.62,4.62
92808,-0.44,0.33,10.84,0.00,0.00,0.00,-32.06,26.38,6.19,130.00,0.12,2.06
92909,-0.62,-0.25,9.41,0.00,0.00,0.00,-37.31,23.44,0.88,129.56,-2.38,-1.12
93009,-0.93,-0.97,6.78,0.00,0.00,0.00,2024.38,5.00,-14.81,129.75,-4.44,-3.56
93109,-0.63,-0.96,6.39,0.00,0.00,0.00,7.81,2.62,0.25,129.88,-4.81,-4.94
93208,-0.70,-0.84,7.73,0.00,0.00,0.00,20.00,-8.62,3.62,129.69,-4.62,-3.56
93307,-1.57,0.42,8.67,0.00,0.00,0.00,37.12,-5.25,10.69,129.25,-3.88,-0.56
93406,-0.48,0.22,10.42,0.00,0.00,0.00,33.50,-41.31,-5.00,129.12,-1.00,2.75
93506,0.71,0.30,11.38,0.00,0.00,0.00,17.38,-16.25,-4.62,129.62,1.69,4.94
93606,0.00,1.11,12.02,0.00,0.00,0.00,-12.81,7.44,-0.88,129.88,2.06,5.00
DHT22: T=21.6 C | RH=66.0%
93707,-0.41,0.70,11.19,0.00,0.00,0.00,-35.31,13.25,-1.62,130.00,0.75,2.44
93807,-0.18,-0.41,10.15,0.00,0.00,0.00,-33.12,17.56,-0.06,130.19,-0.75,-0.94
93908,-0.80,-0.56,7.91,0.00,0.00,0.00,-37.69,23.50,-4.44,130.31,-3.44,-4.31
94008,-0.74,-0.93,7.48,0.00,0.00,0.00,-24.19,10.12,-7.75,130.75,-5.12,-7.31
94109,-1.22,-1.31,5.77,0.00,0.00,0.00,6.25,-8.06,-5.00,131.12,-5.81,-7.56
94209,-0.73,-1.42,8.10,0.00,0.00,0.00,27.50,-6.06,4.62,131.31,-4.75,-5.69
94309,-0.99,-0.24,8.13,0.00,0.00,0.00,32.31,-13.00,5.62,130.81,-3.69,-2.81
94408,-0.08,0.35,10.66,0.00,0.00,0.00,34.44,-56.25,-5.06,130.94,-0.31,0.44
94507,-0.42,0.78,10.53,0.00,0.00,0.00,23.31,-37.81,0.00,130.94,2.31,3.56
94606,0.54,0.85,12.42,0.00,0.00,0.00,11.12,5.00,1.12,130.88,3.69,5.31
94706,0.37,0.69,11.97,0.00,0.00,0.00,-31.38,18.06,4.19,130.69,2.62,3.88
94806,-0.34,-0.15,10.98,0.00,0.00,0.00,-34.31,19.75,-2.38,130.56,0.31,0.81
94907,-0.72,-0.45,9.39,0.00,0.00,0.00,-32.56,30.25,4.19,130.19,-2.06,-2.56
95007,-1.07,326.80,7.61,0.00,0.00,0.00,-38.00,11.19,-3.81,130.69,-4.25,-6.19
95108,-0.95,-1.08,5.79,0.00,0.00,0.00,-4.62,-6.50,-4.88,131.19,-5.06,-8.00
95208,-0.46,-1.68,7.30,0.00,0.00,0.00,26.44,-9.25,3.56,131.19,-4.44,-6.94
95309,-1.16,-0.69,7.98,0.00,0.00,0.00,33.69,-12.38,0.75,131.06,-3.31,-4.25
95408,-0.76,0.11,10.96,0.00,0.00,0.00,32.19,-40.00,1.25,130.94,-0.12,-1.06
95508,0.53,0.24,12.31,0.00,0.00,0.00,25.81,-18.88,-0.88,131.12,2.62,2.50
95607,0.15,1.09,10.70,0.00,0.00,0.00,5.75,5.12,-2.06,131.00,3.19,3.81
95706,0.55,0.17,12.01,0.00,0.00,0.00,-20.38,9.69,2.50,131.19,3.12,2.94
95806,0.08,0.17,10.67,0.00,0.00,0.00,-40.50,23.69,4.38,130.75,1.50,0.38
95906,-0.26,-0.94,10.13,0.00,0.00,0.00,-40.94,26.50,-3.00,130.81,-0.94,-3.50
96006,-1.00,-0.94,7.23,0.00,0.00,0.00,-29.69,13.12,-7.00,131.00,-3.56,-7.00
96106,-0.97,-1.42,7.33,0.00,0.00,0.00,-5.06,-1.75,-1.00,131.50,-4.25,-8.69
DHT22: T=21.6 C | RH=66.0%
96206,-0.94,-1.52,6.94,0.00,0.00,0.00,6.88,-2.62,2.69,131.62,-4.25,-8.50
96306,-1.05,-0.61,7.40,0.00,0.00,0.00,36.12,2.81,2.75,131.56,-4.00,-5.81
96406,-0.08,-0.70,10.81,0.00,0.00,0.00,38.75,-53.88,6.56,131.25,-1.62,-1.69
96506,-0.90,0.68,10.38,0.00,0.00,0.00,30.31,-14.94,0.25,130.75,0.62,1.38
96606,0.53,0.25,12.17,0.00,0.00,0.00,17.75,-22.31,-0.31,131.06,2.50,3.50
96706,0.19,0.92,11.66,0.00,0.00,0.00,-10.75,7.38,0.88,130.94,3.12,3.88
96806,0.56,0.00,11.02,0.00,0.00,0.00,-31.56,17.75,1.19,131.00,2.06,1.44
96906,-0.08,-0.87,9.54,0.00,0.00,0.00,-48.56,27.44,0.06,130.88,-0.31,-2.62
97006,-1.13,-0.89,8.05,0.00,0.00,0.00,-24.31,11.44,-3.06,130.56,-2.56,-6.56
97106,-0.87,-1.37,7.29,0.00,0.00,0.00,-13.81,7.25,-0.69,130.75,-3.69,-8.44
97206,-0.89,-1.21,6.97,0.00,0.00,0.00,8.25,2.25,-3.69,131.00,-3.88,-8.62
97306,-0.30,-1.40,7.58,0.00,0.00,0.00,27.19,-17.38,-2.75,131.25,-3.12,-6.69
97406,-0.33,-0.74,9.18,0.00,0.00,0.00,39.94,-26.38,2.31,131.25,-1.56,-3.31
97506,0.06,-0.14,11.70,0.00,0.00,0.00,28.25,-30.50,2.38,131.06,0.88,-0.50
97606,-0.27,0.63,9.64,0.00,0.00,0.00,26.69,4.00,1.25,130.75,1.19,2.25
97706,0.85,-0.39,12.35,0.00,0.00,0.00,1.44,-11.94,1.00,130.88,1.81,3.44
97806,-0.38,0.61,11.48,0.00,0.00,0.00,-21.12,4.75,2.31,130.44,1.94,2.19
97906,0.04,-0.23,10.52,0.00,0.00,0.00,-31.38,19.88,2.19,130.44,1.31,-0.50
98006,-0.36,-0.33,8.49,0.00,0.00,0.00,-30.19,21.81,0.69,130.38,-0.94,-3.44
98106,-0.62,-0.93,7.29,0.00,0.00,0.00,-26.31,11.94,2.12,130.38,-2.50,-6.69
98206,-0.66,-1.33,6.46,0.00,0.00,0.00,-1.88,-4.19,-2.94,130.19,-3.44,-7.31
98306,-0.71,-1.46,8.10,0.00,0.00,0.00,22.44,-8.00,4.50,130.19,-2.75,-6.44
98407,-0.40,-0.96,8.70,0.00,0.00,0.00,37.06,-16.88,2.44,129.75,-1.69,-3.44
98507,-0.77,-0.01,9.26,0.00,0.00,0.00,24.75,-3.81,3.75,129.31,-0.19,-0.44
98608,0.09,-0.01,12.92,0.00,0.00,0.00,23.19,-22.88,0.94,129.31,1.88,1.75
DHT22: T=21.6 C | RH=66.0%
98708,-0.23,0.34,12.26,0.00,0.00,0.00,2.38,4.00,2.25,129.06,1.94,3.31
98809,0.19,0.12,11.17,0.00,0.00,0.00,-42.94,5.56,-2.06,129.06,1.38,1.31
98909,0.00,-0.72,10.23,0.00,0.00,0.00,-39.00,6.19,7.25,128.81,0.50,-2.44
99009,-0.24,-0.99,9.03,0.00,0.00,0.00,-28.00,7.75,7.94,127.81,-1.06,-4.62
99109,-1.19,-0.66,7.89,0.00,0.00,0.00,-29.75,12.50,3.94,127.31,-2.62,-7.31
99208,-1.19,-1.27,5.81,0.00,0.00,0.00,0.69,-10.25,-4.44,127.25,-3.50,-8.62
99306,-0.22,-1.61,7.54,0.00,0.00,0.00,31.56,-7.75,1.38,127.38,-2.12,-6.31
99406,-0.20,-0.28,9.07,0.00,0.00,0.00,17.56,-37.94,-2.88,127.00,-0.25,-3.75
99506,0.28,-1.01,9.41,0.00,0.00,0.00,25.44,-7.75,-0.25,127.31,1.94,-1.94
99606,0.86,-0.82,11.70,0.00,0.00,0.00,31.56,-7.38,2.69,127.12,3.19,0.94
99707,0.13,-0.06,12.57,0.00,0.00,0.00,-4.69,-7.19,2.00,126.75,3.38,1.94
99807,-0.01,0.16,11.70,0.00,0.00,0.00,-22.50,7.38,1.50,126.62,2.81,0.56
99908,-0.01,-0.79,10.40,0.00,0.00,0.00,-26.44,14.62,1.12,126.62,1.94,-1.56
100008,-0.66,-0.41,8.79,0.00,0.00,0.00,-42.44,11.75,-2.81,126.75,0.19,-4.62
100109,-0.99,-0.48,8.07,0.00,0.00,0.00,-24.81,12.00,-1.44,127.25,-1.50,-7.38
100209,-0.69,-1.36,7.11,0.00,0.00,0.00,-4.25,-2.12,-1.88,127.69,-2.56,-7.69
100309,-0.87,-1.28,7.62,0.00,0.00,0.00,24.44,-2.25,1.69,127.75,-2.38,-6.38
100408,0.06,-0.60,8.75,0.00,0.00,0.00,27.69,-16.94,-0.44,127.56,-1.44,-3.38
100507,-0.55,-0.15,10.54,0.00,0.00,0.00,21.88,-22.44,4.00,127.25,0.00,-0.69
100606,-0.69,-0.15,12.85,0.00,0.00,0.00,26.00,-10.81,-0.38,127.25,1.50,1.50
100706,0.62,-0.42,11.59,0.00,0.00,0.00,0.62,2.62,-1.69,127.56,1.69,2.38
100806,-0.35,0.36,10.96,0.00,0.00,0.00,-11.69,-1.69,0.00,127.56,1.19,1.81
100907,-0.26,-0.38,9.97,0.00,0.00,0.00,-37.44,3.19,-1.94,127.75,0.81,-0.44
101007,-0.42,-0.59,8.72,0.00,0.00,0.00,-42.62,-5.94,-55.62,129.69,1.81,-4.62
101108,-0.39,-0.91,7.69,0.00,0.00,0.00,-4.38,5.56,25.50,127.62,-0.62,-5.94
DHT22: T=21.6 C | RH=66.0%
101208,-0.79,-1.13,7.24,0.00,0.00,0.00,14.62,16.06,-3.38,127.00,-2.25,-6.44
101308,-1.05,-1.05,7.68,0.00,0.00,0.00,41.75,-8.06,-0.62,127.00,-2.75,-4.19
101408,-0.50,-0.39,8.73,0.00,0.00,0.00,32.81,6.75,-3.19,126.75,-2.56,-0.75
101507,-0.62,-0.21,9.85,0.00,0.00,0.00,19.69,-10.69,-0.31,126.69,-2.12,0.69
101606,-0.40,0.47,11.23,0.00,0.00,0.00,24.56,6.38,7.56,126.06,-2.88,2.50
101706,-0.73,0.81,10.74,0.00,0.00,0.00,5.88,11.38,-9.06,126.38,-0.56,5.38
101806,-0.61,0.83,12.26,0.00,0.00,0.00,1.38,-15.06,-4.75,126.88,-0.94,5.12
101906,-0.21,0.28,10.27,0.00,0.00,0.00,-26.50,4.00,-9.50,127.19,-0.56,3.81
102006,-0.23,0.21,9.34,0.00,0.00,0.00,-39.56,16.88,-18.31,128.56,-0.62,1.69
102106,-0.99,-0.29,8.79,0.00,0.00,0.00,-51.12,-5.62,5.44,129.06,-2.25,-2.56
102206,-0.80,-1.00,7.71,0.00,0.00,0.00,-23.44,15.00,-1.44,128.88,-2.69,-5.62
102306,-0.47,-1.09,6.13,0.00,0.00,0.00,5.31,-22.31,-7.19,128.94,-1.50,-6.44
102406,-0.98,-1.02,8.19,0.00,0.00,0.00,24.25,23.12,2.75,129.06,-2.62,-4.75
102506,-1.01,-0.32,9.80,0.00,0.00,0.00,15.44,-24.69,38.62,128.44,-4.31,-1.69
102606,-0.74,0.10,11.40,0.00,0.00,0.00,26.19,-24.62,-0.88,126.44,-3.81,0.50
102706,-0.75,0.52,12.39,0.00,0.00,0.00,2.56,-13.31,-2.38,127.44,-1.62,2.38
102806,-0.69,0.31,12.30,0.00,0.00,0.00,-13.62,-19.81,-4.00,128.25,-0.62,2.00
102906,-0.26,0.00,11.11,0.00,0.00,0.00,-19.38,-7.69,-19.50,128.94,0.25,-0.50
103006,-0.12,-0.71,7.86,0.00,0.00,0.00,-37.44,20.19,-10.56,130.38,-0.81,-3.75
103106,-0.78,-0.93,6.63,0.00,0.00,0.00,-18.44,-4.75,-4.50,131.06,-1.19,-6.00
103206,-0.63,-0.91,7.20,0.00,0.00,0.00,11.38,-10.00,-10.69,131.62,-1.56,-6.06
103306,-0.79,-0.87,7.86,0.00,0.00,0.00,15.81,2.81,-5.06,132.44,-0.75,-4.75
103406,-0.66,-0.56,8.48,0.00,0.00,0.00,39.38,8.88,2.62,132.25,-1.62,-2.25
103506,-0.92,-0.21,10.30,0.00,0.00,0.00,30.88,-1.31,9.88,132.31,-3.38,0.81
103606,-0.89,0.56,11.49,0.00,0.00,0.00,16.31,-45.44,8.06,131.38,-1.75,2.75
DHT22: T=21.6 C | RH=66.0%
103706,-0.85,0.58,11.95,0.00,0.00,0.00,-0.75,19.06,-5.00,131.62,-3.50,2.94
103806,-0.81,0.21,11.80,0.00,0.00,0.00,-26.50,-28.69,6.88,131.38,-2.44,1.62
103906,-0.53,-0.47,9.62,0.00,0.00,0.00,-34.31,-14.38,-3.38,131.19,-0.38,-1.44
104006,-0.34,-0.73,8.40,0.00,0.00,0.00,-30.25,-16.56,-0.69,131.88,-0.06,-4.69
104106,-0.47,-1.29,7.52,0.00,0.00,0.00,-12.19,12.19,2.19,131.75,-0.69,-6.56
104206,-0.55,-1.09,7.09,0.00,0.00,0.00,4.25,4.25,-1.44,131.00,-1.00,-7.56
104306,-0.35,-1.00,7.14,0.00,0.00,0.00,17.50,-7.44,-3.75,131.88,-1.44,-6.06
104407,-0.72,-0.80,8.85,0.00,0.00,0.00,28.62,17.94,-3.31,132.44,-0.06,-3.38
104507,-0.87,-0.56,10.54,0.00,0.00,0.00,43.44,-15.25,-4.38,133.44,-2.56,-0.94
104608,-0.28,0.44,10.73,0.00,0.00,0.00,8.38,31.88,13.31,132.19,-2.44,1.50
104708,-1.31,0.21,12.19,0.00,0.00,0.00,11.38,-8.06,-5.31,132.75,-4.00,3.19
104809,-0.59,0.33,11.35,0.00,0.00,0.00,-26.50,-22.38,0.69,132.44,-1.38,1.62
104909,-0.45,-0.46,9.58,0.00,0.00,0.00,-24.81,-9.06,-0.06,132.62,-0.94,-0.62
105009,-0.59,-0.52,8.75,0.00,0.00,0.00,-33.50,24.56,5.88,132.31,-2.38,-3.56
105109,-1.14,-0.99,7.95,0.00,0.00,0.00,-28.75,18.62,-0.12,132.19,-4.56,-6.50
105208,-1.18,-1.26,6.90,0.00,0.00,0.00,-1.50,37.25,0.00,132.00,-7.94,-7.94
105307,-1.26,-1.35,7.70,0.00,0.00,0.00,11.44,-13.69,5.88,131.88,-8.25,-7.19
105406,-1.23,-0.77,8.21,0.00,0.00,0.00,26.81,3.06,6.44,131.81,-7.69,-5.00
105506,-1.40,-0.36,9.14,0.00,0.00,0.00,35.19,2.25,23.44,131.19,-6.06,-1.81
105606,-1.54,0.51,10.72,0.00,0.00,0.00,32.06,-39.69,-1.25,130.75,-6.38,1.94
105707,-0.59,0.47,11.53,0.00,0.00,0.00,11.00,-25.25,-4.12,131.00,-1.62,4.12
105807,-0.60,0.56,12.63,0.00,0.00,0.00,-13.12,18.62,-1.56,131.50,-1.81,3.69
105908,-0.69,0.18,10.85,0.00,0.00,0.00,-27.31,-7.81,0.44,131.56,-2.19,1.50
106008,-0.68,-0.35,9.81,0.00,0.00,0.00,-36.62,12.19,-6.31,132.00,-3.19,-1.88
106109,-0.79,-0.91,7.83,0.00,0.00,0.00,-33.00,31.12,-1.81,132.25,-4.94,-5.19
DHT22: T=21.6 C | RH=66.0%
106209,-1.35,-1.45,7.84,0.00,0.00,0.00,-28.81,17.81,1.00,132.06,-6.31,-8.25
106308,-1.42,-1.46,7.38,0.00,0.00,0.00,-3.56,-39.56,-2.88,132.06,-6.06,-9.38
106408,-0.75,-1.06,7.02,0.00,0.00,0.00,36.00,-37.81,13.06,131.00,-2.06,-7.31
106507,-0.63,-0.99,8.95,0.00,0.00,0.00,33.25,2.69,-9.38,130.94,-2.62,-4.00
106606,-0.54,-0.03,10.19,0.00,0.00,0.00,33.19,8.19,1.62,131.00,-1.12,-0.19
106706,-0.66,0.23,11.64,0.00,0.00,0.00,19.25,5.12,-1.19,130.75,-2.62,2.00
106806,-0.84,0.24,12.07,0.00,0.00,0.00,-1.25,-9.56,-4.75,131.06,-2.94,2.94
106907,-0.61,0.10,11.56,0.00,0.00,0.00,-23.06,-1.38,7.06,131.12,-2.69,1.38
107007,-0.70,-0.34,9.68,0.00,0.00,0.00,-36.38,19.06,-5.31,130.94,-3.94,-1.00
107108,-0.79,-0.49,8.78,0.00,0.00,0.00,-29.75,-24.50,-9.00,131.88,-4.38,-4.62
107208,-0.69,-0.95,7.09,0.00,0.00,0.00,-16.00,-16.25,1.69,132.38,-2.44,-6.81
107309,-0.44,-1.47,6.46,0.00,0.00,0.00,5.19,6.00,-2.25,132.19,-1.56,-7.06
107409,-0.52,-1.53,7.69,0.00,0.00,0.00,36.50,8.06,0.00,132.38,-2.56,-5.19
107508,-0.67,-0.47,9.55,0.00,0.00,0.00,29.31,-5.00,11.38,131.69,-1.75,-1.81
107607,-0.51,0.26,11.24,0.00,0.00,0.00,21.81,5.94,1.88,131.06,-10.31,0.50
107706,-0.49,0.26,11.55,0.00,0.00,0.00,0.75,-3.06,10.00,130.50,-1.50,1.69
107806,-0.46,0.35,13.17,0.00,0.00,0.00,-8.69,-4.81,-6.44,130.88,-1.19,1.81
107906,-0.33,-0.21,10.03,0.00,0.00,0.00,-26.12,-11.00,-7.38,131.25,-0.69,-0.31
108006,-0.22,-0.88,8.41,0.00,0.00,0.00,-31.94,0.94,-2.38,131.44,0.12,-3.50
108106,-0.79,-1.36,7.28,0.00,0.00,0.00,-14.56,13.06,-13.38,132.44,-1.88,-5.94
108206,-0.31,-1.13,6.42,0.00,0.00,0.00,0.06,-20.31,2.12,132.38,-1.25,-6.94
108306,-0.45,-1.46,7.62,0.00,0.00,0.00,24.94,11.50,4.62,132.69,-1.31,-5.19
108406,-0.59,-0.66,9.15,0.00,0.00,0.00,28.12,16.75,0.62,132.25,-3.62,-2.81
108506,-0.44,0.00,9.69,0.00,0.00,0.00,34.44,-9.56,12.12,132.00,-2.56,0.25
108606,-0.54,0.40,13.43,0.00,0.00,0.00,18.44,-16.06,-1.06,131.94,-1.38,2.31
DHT22: T=21.6 C | RH=66.0%
108706,-0.39,0.06,11.91,0.00,0.00,0.00,-7.88,-6.12,-0.50,132.31,-1.56,2.69
108806,-0.29,0.09,11.40,0.00,0.00,0.00,-25.44,-14.50,3.81,132.38,-0.75,1.06
108906,-0.11,-0.42,9.29,0.00,0.00,0.00,-40.00,4.06,3.50,132.06,0.25,-2.19
109006,-0.42,-1.11,7.80,0.00,0.00,0.00,-35.38,6.75,1.00,131.94,-1.00,-6.00
109106,-0.64,-1.27,6.88,0.00,0.00,0.00,-10.62,17.06,0.94,131.94,-2.81,-8.25
109206,-0.79,-1.23,6.64,0.00,0.00,0.00,15.75,-8.19,0.38,132.12,-2.69,-7.81
109306,-1.29,-0.99,7.81,0.00,0.00,0.00,29.00,14.88,-1.38,132.19,-3.88,-5.62
109406,-0.77,-0.65,9.18,0.00,0.00,0.00,24.12,-14.06,2.38,132.06,-3.06,-2.62
109506,-0.31,-0.22,11.21,0.00,0.00,0.00,31.19,9.00,3.56,131.88,-2.44,0.62
109606,-0.89,0.20,12.21,0.00,0.00,0.00,13.50,29.12,1.62,131.44,-3.44,2.19
109706,-1.21,0.00,12.31,0.00,0.00,0.00,-7.88,-26.44,-6.19,131.81,-3.88,2.44
109806,-0.59,0.11,11.37,0.00,0.00,0.00,-28.31,-42.31,-8.31,132.50,-1.94,0.25
109906,-0.04,-0.67,8.34,0.00,0.00,0.00,-36.50,-2.50,2.81,132.44,0.44,-2.69
110006,-0.35,-1.05,7.19,0.00,0.00,0.00,-31.56,40.25,0.38,132.88,-1.94,-6.38
110106,-0.81,-1.01,6.24,0.00,0.00,0.00,-6.56,12.69,4.81,132.56,-3.12,-7.69
110206,-0.73,-1.33,7.33,0.00,0.00,0.00,33.19,4.06,12.62,132.38,-4.81,-7.00
110306,-0.01,0.46,9.01,0.00,0.00,0.00,57.25,-15.50,14.38,130.19,-1.50,-1.00
110407,-0.48,-0.26,9.61,0.00,0.00,0.00,-3.50,1.75,-0.50,128.75,-1.56,0.56
110507,-1.36,0.10,13.03,0.00,0.00,0.00,9.62,20.50,1.31,128.69,-3.19,1.69
110608,-0.54,0.36,12.80,0.00,0.00,0.00,-20.12,-4.75,-2.19,129.38,-2.88,2.00
110708,-0.48,-0.73,10.85,0.00,0.00,0.00,-47.12,-2.06,-8.31,129.56,-2.38,-1.75
110809,-0.61,-1.04,8.98,0.00,0.00,0.00,-40.38,-2.44,-9.25,130.56,-2.25,-6.56
110909,-0.50,-1.34,7.14,0.00,0.00,0.00,-37.12,7.38,-3.88,131.00,-2.00,-10.44
111009,-1.03,-1.43,6.23,0.00,0.00,0.00,-21.94,8.38,-3.81,131.31,-3.06,-13.25
111109,-0.64,-1.94,6.67,0.00,0.00,0.00,26.25,1.31,-1.69,131.50,-2.94,-12.50
DHT22: T=21.6 C | RH=66.0%
111208,-0.61,-0.98,10.05,0.00,0.00,0.00,37.38,5.25,-5.56,131.81,-3.44,-8.88
111307,-1.11,-1.46,10.52,0.00,0.00,0.00,42.88,-2.44,9.12,131.50,-2.75,-4.19
111406,-0.53,0.15,12.73,0.00,0.00,0.00,24.56,7.06,2.38,131.19,-2.94,-0.88
111506,-0.84,-0.26,12.99,0.00,0.00,0.00,-11.94,-4.62,6.75,130.69,-2.56,0.00
111606,-0.59,-0.75,10.26,0.00,0.00,0.00,-31.25,-8.94,0.50,130.38,-1.94,-2.44
111707,-0.30,-0.82,9.23,0.00,0.00,0.00,-38.69,2.06,3.56,130.25,-1.94,-5.94
111807,-0.70,-1.54,7.82,0.00,0.00,0.00,-19.69,4.25,-1.94,130.25,-2.31,-8.81
111908,-0.96,-1.68,6.54,0.00,0.00,0.00,4.75,5.19,-0.31,130.38,-2.62,-10.00
112008,0.18,-1.10,6.24,0.00,0.00,0.00,27.62,-6.56,3.00,130.44,-1.81,-9.06
112109,-0.67,-1.13,9.28,0.00,0.00,0.00,41.75,-10.81,-1.56,130.25,-1.19,-5.75
112209,-0.23,-0.59,10.54,0.00,0.00,0.00,40.88,3.00,5.31,130.25,-0.88,-1.75
112309,-0.82,-0.38,11.86,0.00,0.00,0.00,17.56,-4.25,0.56,130.06,-1.00,0.44
112408,-0.79,-0.28,12.46,0.00,0.00,0.00,-5.81,-7.06,2.12,130.25,-1.00,0.88
112507,-0.34,-0.36,10.87,0.00,0.00,0.00,-30.00,-4.00,-1.25,130.25,-0.62,-1.00
112606,-0.23,-0.97,9.38,0.00,0.00,0.00,-41.62,5.12,-2.62,130.62,-0.56,-4.44
112706,-0.34,-1.24,6.92,0.00,0.00,0.00,-38.62,5.62,0.81,130.38,-1.00,-9.06
112806,-0.23,-1.40,5.96,0.00,0.00,0.00,-1.50,1.69,-2.75,130.62,-1.50,-10.19
112907,-0.77,-1.67,7.56,0.00,0.00,0.00,28.44,-8.31,0.38,130.62,-1.25,-8.50
113007,0.39,-0.95,8.39,0.00,0.00,0.00,40.94,-2.31,-3.12,130.69,-0.44,-5.44
113108,-0.16,-0.45,10.30,0.00,0.00,0.00,30.75,7.12,5.50,130.25,-1.25,-1.75
113208,-0.88,0.01,11.68,0.00,0.00,0.00,17.50,11.31,5.31,129.75,-2.31,0.56
113308,-1.02,0.18,12.97,0.00,0.00,0.00,-9.19,3.56,-2.25,129.75,-3.25,0.75
113408,-0.86,-0.63,10.57,0.00,0.00,0.00,-29.50,-9.00,-1.81,129.81,-2.62,-1.38
113507,-0.54,-0.69,9.44,0.00,0.00,0.00,-36.69,-4.69,-2.88,130.19,-2.06,-4.88
113606,-0.55,-1.59,7.24,0.00,0.00,0.00,-26.06,-5.75,2.56,130.19,-1.25,-7.94
DHT22: T=21.6 C | RH=66.0%
113706,-0.26,-1.50,5.57,0.00,0.00,0.00,-5.12,1.06,-3.50,130.31,-1.38,-9.75
113806,-0.59,-1.33,6.76,0.00,0.00,0.00,29.81,-4.00,1.94,130.31,-1.31,-8.62
113906,-0.18,-0.71,9.01,0.00,0.00,0.00,40.38,-7.25,-5.69,130.56,-0.62,-4.81
114006,-0.29,-0.37,9.86,0.00,0.00,0.00,37.06,4.19,4.62,130.56,-0.56,-1.19
114106,-0.34,0.00,11.87,0.00,0.00,0.00,22.00,5.75,0.38,130.38,-1.31,1.56
114206,-0.84,0.33,13.26,0.00,0.00,0.00,4.19,6.19,0.62,130.12,-1.75,2.69
114306,-0.42,0.12,11.57,0.00,0.00,0.00,-36.25,-4.38,-2.19,130.12,-9.50,0.56
114406,-0.56,-0.77,9.56,0.00,0.00,0.00,-42.94,1.56,-2.94,130.38,-1.19,-3.06
114506,-0.50,-1.08,7.61,0.00,0.00,0.00,-37.50,1.06,-5.50,130.88,-1.19,-7.25
114606,-0.42,-1.15,6.37,0.00,0.00,0.00,-9.12,8.38,-6.50,131.50,-1.69,-9.31
114706,-0.51,-1.31,6.65,0.00,0.00,0.00,20.62,-2.50,1.25,131.69,-1.75,-8.56
114806,-0.47,-1.07,8.72,0.00,0.00,0.00,31.56,-11.19,-0.69,131.56,-1.19,-5.75
114906,-0.65,-0.76,10.18,0.00,0.00,0.00,36.50,-0.19,4.69,131.38,-0.75,-2.00
115006,0.04,0.41,11.14,0.00,0.00,0.00,36.31,-4.25,4.25,131.19,-0.19,1.44
115106,-0.45,0.73,13.38,0.00,0.00,0.00,-3.06,-3.38,-0.94,130.94,-0.38,3.19
115206,-0.24,0.23,11.38,0.00,0.00,0.00,-31.12,-3.81,0.75,131.00,0.00,1.50
115306,-0.19,-0.37,9.82,0.00,0.00,0.00,-34.12,1.38,-3.31,131.19,0.00,-1.94
115406,-0.29,-1.02,8.92,0.00,0.00,0.00,-40.00,4.56,-6.50,131.69,-0.31,-5.25
115506,-0.33,-1.23,7.17,0.00,0.00,0.00,-21.88,8.25,-5.94,132.31,-1.00,-8.19
115606,-0.62,-1.48,6.26,0.00,0.00,0.00,11.88,-2.75,0.81,132.38,-1.06,-8.69
115706,-0.49,-1.12,8.10,0.00,0.00,0.00,30.00,-7.69,1.25,132.25,-0.38,-6.62
115806,0.65,0.00,8.66,0.00,0.00,0.00,36.50,-1.31,0.00,132.31,0.31,-2.94
115906,-0.05,0.23,10.81,0.00,0.00,0.00,36.12,8.50,3.25,131.94,-0.19,0.81
116006,-0.69,0.24,12.02,0.00,0.00,0.00,27.25,9.50,2.62,131.56,-1.06,3.56
116106,-0.56,1.42,11.76,0.00,0.00,0.00,-15.19,9.12,-8.75,131.69,-1.81,4.06
DHT22: T=21.6 C | RH=66.0%
116206,-0.59,0.17,11.10,0.00,0.00,0.00,-36.81,-8.25,-1.62,131.88,-1.81,1.88
116306,-0.63,-0.60,9.66,0.00,0.00,0.00,-35.88,-1.12,0.19,131.81,-1.31,-1.50
116407,-0.55,-0.96,8.79,0.00,0.00,0.00,-39.81,-0.75,-2.19,131.94,-1.31,-5.56
116507,-0.31,-1.33,7.26,0.00,0.00,0.00,-22.62,2.50,-3.88,132.25,-1.25,-8.69
116607,-0.28,-1.53,5.94,0.00,0.00,0.00,2.12,-2.12,0.75,132.44,-1.38,-9.50
116708,-0.43,-1.44,7.14,0.00,0.00,0.00,31.44,-9.75,3.94,132.06,-0.75,-7.69
116808,-0.56,-0.79,8.71,0.00,0.00,0.00,45.38,-7.25,-1.50,131.81,0.00,-3.94
116909,0.45,0.11,9.93,0.00,0.00,0.00,35.44,4.25,-0.12,131.94,0.25,0.00
117009,-0.28,0.30,13.32,0.00,0.00,0.00,3.75,1.88,-2.81,131.94,-0.50,2.06
117109,-0.16,-0.16,11.59,0.00,0.00,0.00,-8.81,-1.25,0.31,132.00,-0.19,1.69
117208,-0.42,-0.30,11.00,0.00,0.00,0.00,-34.50,1.25,0.56,131.88,-0.44,-0.94
117307,-0.28,-1.05,9.29,0.00,0.00,0.00,-38.19,7.25,-1.00,132.00,-0.62,-4.50
117406,-0.24,-0.95,7.01,0.00,0.00,0.00,-33.38,7.38,-1.44,132.12,-1.12,-8.25
117506,-0.47,-1.63,5.45,0.00,0.00,0.00,-4.44,1.31,-0.69,132.12,-1.88,-10.50
117606,-0.58,-1.38,7.45,0.00,0.00,0.00,29.81,-10.00,2.75,131.88,-1.19,-8.94
117707,0.20,-0.78,8.55,0.00,0.00,0.00,43.62,-15.56,-3.62,131.81,0.06,-5.06
117807,-0.01,-0.70,9.91,0.00,0.00,0.00,42.75,5.75,1.56,131.62,0.12,-0.50
117908,0.17,0.76,11.59,0.00,0.00,0.00,31.94,12.44,7.06,131.31,-0.62,3.00
118008,-0.96,0.15,12.51,0.00,0.00,0.00,-5.88,-5.38,2.50,130.81,-1.00,4.12
118108,-0.67,0.09,11.83,0.00,0.00,0.00,-25.19,-3.81,-2.44,130.88,-0.56,2.44
118209,0.11,0.09,9.92,0.00,0.00,0.00,-42.25,-3.38,-7.50,131.44,-0.12,-1.12
118309,-0.14,-0.86,8.17,0.00,0.00,0.00,-41.19,2.31,-3.38,131.88,0.12,-4.81
118408,-0.29,-1.10,7.11,0.00,0.00,0.00,-24.69,7.94,-8.19,132.38,-0.19,-8.12
118507,-0.33,-1.21,6.71,0.00,0.00,0.00,6.12,2.88,-3.00,132.88,-0.81,-8.69
118606,0.04,-1.00,7.40,0.00,0.00,0.00,31.88,-1.69,2.62,132.88,-0.81,-6.56
DHT22: T=21.6 C | RH=66.0%
118706,-0.56,-0.86,9.52,0.00,0.00,0.00,45.62,19.69,14.50,132.12,-1.62,-2.44
118806,-0.33,0.93,10.45,0.00,0.00,0.00,39.38,4.50,6.19,131.31,-2.69,1.62
118907,-1.21,0.15,12.03,0.00,0.00,0.00,23.50,11.44,11.81,130.44,-3.50,4.31
119007,-1.21,0.60,13.21,0.00,0.00,0.00,-18.31,-10.75,-0.62,130.06,-3.25,4.44
119108,-0.67,0.22,10.84,0.00,0.00,0.00,-35.12,-16.88,-8.75,130.44,-1.75,1.44
119208,-0.11,0.11,8.84,0.00,0.00,0.00,-47.25,-9.81,-4.12,130.94,-0.38,-2.19
119309,-0.12,-0.89,7.68,0.00,0.00,0.00,-38.31,-2.56,-1.50,131.12,-0.06,-5.94
119409,0.15,-1.08,5.85,0.00,0.00,0.00,-9.81,9.44,2.50,131.06,-0.88,-8.19
119508,0.22,-0.35,6.46,0.00,0.00,0.00,8.19,-43.06,2.12,130.56,-1.06,-9.06
119607,0.32,-1.22,8.72,0.00,0.00,0.00,36.94,37.00,-2.12,130.12,0.38,-6.06
119706,-0.21,-0.13,10.35,0.00,0.00,0.00,50.69,-2.12,13.38,129.12,1.00,-1.50
119806,-0.56,0.64,11.08,0.00,0.00,0.00,30.62,59.44,-3.69,129.25,-1.94,3.19
119906,-1.20,1.01,12.34,0.00,0.00,0.00,2.94,-6.25,3.94,129.56,-3.12,5.75
120006,-1.26,0.53,12.35,0.00,0.00,0.00,-20.75,6.38,-5.62,129.69,-4.81,4.19
120106,-1.13,0.15,10.75,0.00,0.00,0.00,-32.00,25.75,-10.44,130.25,-5.56,1.62
120206,-0.93,-0.11,8.90,0.00,0.00,0.00,-61.38,-11.06,5.50,129.75,-4.50,-3.19
120306,-1.04,-1.26,7.26,0.00,0.00,0.00,-59.75,3.38,12.69,128.75,-4.38,-8.75
120406,-0.95,-1.32,6.42,0.00,0.00,0.00,-14.94,0.88,3.12,128.62,-4.31,-10.50
120506,-0.67,-1.10,6.46,0.00,0.00,0.00,27.62,-33.12,-8.75,128.69,-4.00,-9.31
120606,-0.12,-0.91,7.84,0.00,0.00,0.00,59.75,-20.62,3.88,128.75,-1.44,-4.50
120706,0.01,0.11,9.97,0.00,0.00,0.00,41.06,20.25,0.38,128.50,1.19,0.19
120806,-0.64,0.56,12.15,0.00,0.00,0.00,30.12,-9.12,-3.25,128.94,-1.50,4.06
120906,-0.83,0.88,14.17,0.00,0.00,0.00,-30.38,6.12,-1.81,129.00,-1.44,4.25
121006,-0.91,0.94,14.92,0.00,0.00,0.00,-75.19,-60.69,3.31,129.94,0.94,0.88
121106,-0.56,-0.39,7.84,0.00,0.00,0.00,-30.69,13.50,4.31,130.12,0.06,-4.25
DHT22: T=21.6 C | RH=66.0%
121206,-0.56,-1.00,7.37,0.00,0.00,0.00,-0.69,17.94,-3.25,130.56,-1.19,-4.69
121306,-0.14,-0.67,5.88,0.00,0.00,0.00,14.50,1.56,-0.50,130.81,-2.25,-4.62
121406,0.00,-0.49,8.50,0.00,0.00,0.00,2.88,-12.31,1.50,130.81,-1.19,-3.25
121506,-1.04,-0.23,8.74,0.00,0.00,0.00,15.75,0.75,-2.75,130.88,-0.62,-2.44
121606,0.24,-1.30,10.44,0.00,0.00,0.00,30.44,-0.56,-2.81,131.31,0.12,0.31
121706,-0.46,0.22,10.60,0.00,0.00,0.00,16.31,-9.81,9.44,130.94,0.50,2.44
121806,0.20,0.87,10.78,0.00,0.00,0.00,12.88,-11.44,2.94,130.31,1.31,4.00
121906,0.58,0.42,12.28,0.00,0.00,0.00,-20.12,8.50,-3.44,130.31,2.62,3.38
122006,-0.08,0.45,10.57,0.00,0.00,0.00,-37.31,27.31,5.62,130.19,0.94,0.69
122106,-0.33,-0.82,8.12,0.00,0.00,0.00,-41.31,33.88,2.25,130.06,-2.12,-3.00
122206,-1.06,-1.02,4.83,0.00,0.00,0.00,-4.44,21.88,-4.94,130.06,-4.62,-5.38
122306,-0.26,-1.30,5.74,0.00,0.00,0.00,28.69,-8.38,-3.44,130.50,-4.00,-4.38
122407,0.15,-0.66,9.38,0.00,0.00,0.00,35.69,-11.25,10.44,130.19,-2.44,-0.69
122507,-1.13,0.72,10.17,0.00,0.00,0.00,33.38,-24.50,-1.56,129.56,-0.88,2.75
122607,-0.27,1.05,12.47,0.00,0.00,0.00,24.50,-14.19,2.88,129.44,1.25,5.44
122708,-0.46,1.52,13.73,0.00,0.00,0.00,-13.19,1.31,0.75,129.19,2.06,6.00
122808,0.05,0.67,11.33,0.00,0.00,0.00,-28.81,15.44,-3.94,129.56,1.06,3.44
122909,-0.25,-0.50,8.61,0.00,0.00,0.00,-43.19,25.06,-4.88,129.88,-1.25,0.12
123009,-0.67,-1.08,7.11,0.00,0.00,0.00,-18.12,19.81,-1.88,130.19,-3.06,-3.56
123109,-0.84,-0.46,6.16,0.00,0.00,0.00,-10.31,7.69,-8.44,130.25,-3.75,-4.62
123208,-0.09,-1.54,7.93,0.00,0.00,0.00,26.00,-7.50,2.12,130.25,-3.62,-3.75
123307,-1.29,-0.61,8.24,0.00,0.00,0.00,39.12,16.19,13.50,129.62,-4.00,-1.00
123406,-1.12,0.33,9.18,0.00,0.00,0.00,50.62,18.94,-4.06,129.81,-4.56,3.31
123506,-0.79,1.36,12.69,0.00,0.00,0.00,23.69,-28.00,11.50,129.88,-2.69,7.00
123606,-1.51,2.00,12.58,0.00,0.00,0.00,-0.44,-11.44,2.12,129.38,-1.75,8.44
DHT22: T=21.6 C | RH=66.0%
123707,-1.01,1.54,11.90,0.00,0.00,0.00,-30.69,0.00,-2.06,129.44,-1.69,7.06
123807,-0.67,0.41,10.87,0.00,0.00,0.00,-28.00,16.94,5.44,129.38,-3.00,4.00
123908,-1.18,0.77,8.19,0.00,0.00,0.00,-44.44,15.75,-9.31,129.25,-4.94,0.62
124008,-1.07,-0.90,6.67,0.00,0.00,0.00,-23.88,10.62,-11.88,130.19,-6.25,-2.75
124109,-0.94,-1.19,6.16,0.00,0.00,0.00,3.31,-3.50,1.06,130.44,-6.25,-3.62
124209,-0.68,-0.68,7.38,0.00,0.00,0.00,28.94,2035.25,5.19,130.19,-5.31,-1.75
124309,-0.88,0.68,9.07,0.00,0.00,0.00,46.94,-20.25,10.56,129.56,-4.19,1.38
124408,-0.75,1.08,12.44,0.00,0.00,0.00,15.00,-14.94,-4.31,129.31,-2.06,4.25
124507,-0.87,1.09,9.99,0.00,0.00,0.00,8.38,-6.56,2.81,129.44,-1.88,5.75
124606,-0.49,0.91,11.36,0.00,0.00,0.00,4.62,-11.31,-6.12,129.75,-1.00,6.44
124706,-0.31,0.86,13.47,0.00,0.00,0.00,-31.06,13.88,1.50,130.00,-0.62,5.44
124806,-0.64,0.35,10.60,0.00,0.00,0.00,-38.31,13.81,-2.31,129.75,-2.31,1.69
124907,-0.52,-0.38,7.28,0.00,0.00,0.00,-52.62,11.06,-2.06,130.06,-4.69,-3.06
125007,-1.05,326.57,6.47,0.00,0.00,0.00,-20.88,4.50,-4.50,130.38,-5.56,-6.50
125108,-1.07,-1.24,6.36,0.00,0.00,0.00,11.25,-1.06,-0.38,130.62,-5.75,-6.56
125208,-1.14,-0.94,8.33,0.00,0.00,0.00,26.44,2.06,8.69,130.44,-5.44,-4.88
125308,-1.40,-0.23,8.81,0.00,0.00,0.00,35.75,4.31,2.75,130.06,-5.62,-1.44
125408,-0.19,-0.92,11.01,0.00,0.00,0.00,39.19,-18.62,-9.12,130.56,-4.69,1.56
125507,-1.81,2.48,11.33,0.00,0.00,0.00,21.44,-17.56,8.25,130.25,-3.25,5.12
125606,-0.42,0.59,12.57,0.00,0.00,0.00,4.50,-7.00,-2.44,130.50,-2.56,6.81
125706,-0.64,0.87,12.39,0.00,0.00,0.00,-30.56,-4.00,0.81,130.50,-2.00,5.38
125806,-0.78,0.33,10.34,0.00,0.00,0.00,-40.50,4.75,-2.81,130.38,-2.62,2.50
125906,-0.75,-0.28,8.19,0.00,0.00,0.00,-31.94,20.31,0.69,130.31,-3.75,-1.69
126006,-0.96,-0.63,7.46,0.00,0.00,0.00,-34.19,-0.12,-2.25,130.50,-4.75,-4.50
126106,-1.05,-0.59,6.22,0.00,0.00,0.00,0.81,-4.56,-0.81,130.44,-5.31,-6.38
DHT22: T=21.6 C | RH=66.0%
126206,-0.51,-1.07,8.79,0.00,0.00,0.00,23.44,-0.88,7.06,130.44,-4.88,-4.81
126306,-2.02,0.21,7.29,0.00,0.00,0.00,25.38,-3.44,5.88,129.69,-5.38,-2.19
126406,-0.66,0.09,9.90,0.00,0.00,0.00,38.69,-11.88,2.75,130.12,-3.75,0.81
126506,-0.75,0.76,12.96,0.00,0.00,0.00,21.62,-37.00,0.56,130.12,-2.19,3.81
126606,-0.01,0.50,12.87,0.00,0.00,0.00,4.19,-8.19,1.69,130.25,-1.31,5.44
126706,-0.54,0.49,11.33,0.00,0.00,0.00,-37.44,6.25,5.94,130.00,-1.62,3.19
126806,-0.53,-0.01,9.33,0.00,0.00,0.00,-39.00,15.12,5.94,129.50,-2.75,-0.44
126906,-1.11,-0.89,9.57,0.00,0.00,0.00,-26.69,7.38,-4.12,129.50,-3.81,-3.94
127006,-0.81,-0.87,6.92,0.00,0.00,0.00,-18.25,4.19,-0.62,129.69,-5.12,-6.50
127106,-0.94,-1.06,6.69,0.00,0.00,0.00,6.00,0.50,3.06,129.75,-5.69,-6.69
127206,-1.51,-0.63,8.03,0.00,0.00,0.00,30.75,3.69,4.00,129.31,-5.56,-4.81
127306,-1.12,-0.19,8.83,0.00,0.00,0.00,40.56,-26.12,-7.38,129.50,-5.00,-0.94
127406,-0.83,0.79,10.39,0.00,0.00,0.00,32.56,-7.75,1.69,130.00,-3.56,2.44
127506,-0.65,0.98,10.50,0.00,0.00,0.00,25.25,-1.38,2.50,130.06,-3.50,5.19
127606,-0.63,0.86,13.18,0.00,0.00,0.00,-2.06,-8.81,6.69,130.00,-2.56,6.56
127706,-0.61,0.42,11.70,0.00,0.00,0.00,-34.44,1.56,-5.56,129.88,-2.62,4.38
127806,-0.58,-0.03,9.70,0.00,0.00,0.00,-48.06,11.12,1.06,129.94,-3.62,0.31
127906,-1.48,-0.22,7.97,0.00,0.00,0.00,-35.00,13.75,4.31,129.69,-5.50,-2.94
128006,-1.13,-0.35,6.45,0.00,0.00,0.00,-11.94,6.44,-4.00,129.75,-6.62,-4.81
128106,-0.85,-1.22,6.82,0.00,0.00,0.00,12.00,-6.56,3.88,129.88,-6.50,-5.00
128206,-1.34,-0.39,7.80,0.00,0.00,0.00,32.44,-12.69,3.94,129.56,-5.75,-2.25
128306,-0.82,-0.17,9.22,0.00,0.00,0.00,50.12,3.94,-2.69,129.31,-4.94,0.88
128407,-0.14,-0.18,10.83,0.00,0.00,0.00,29.25,-7.31,3.00,129.56,-3.88,4.31
128507,-1.13,0.96,13.22,0.00,0.00,0.00,13.44,0.94,-0.12,129.44,-2.62,5.88
128608,-0.72,0.46,11.46,0.00,0.00,0.00,-29.06,9.81,-1.06,129.50,-3.19,5.06
DHT22: T=21.6 C | RH=66.0%
128708,-0.52,-0.30,10.88,0.00,0.00,0.00,-48.12,18.19,1.25,129.38,-4.50,1.12
128808,-1.58,-0.14,7.71,0.00,0.00,0.00,-25.38,16.38,0.19,128.94,-6.31,-2.44
128909,-1.40,-0.48,6.14,0.00,0.00,0.00,-29.44,-0.50,1.25,129.00,-6.81,-5.75
129009,-0.33,-1.20,6.23,0.00,0.00,0.00,15.25,0.31,1.88,129.19,-6.62,-5.69
129109,-0.82,-0.98,7.83,0.00,0.00,0.00,31.88,-9.12,0.25,129.06,-5.88,-3.69
129207,-1.25,0.06,8.10,0.00,0.00,0.00,38.56,-16.06,-3.25,128.88,-4.75,-0.69
129306,-0.26,0.01,11.59,0.00,0.00,0.00,33.31,-16.25,2.69,129.19,-2.56,2.81
129406,-0.05,0.31,12.96,0.00,0.00,0.00,13.12,1.06,1.94,129.00,-1.38,4.50
129506,-1.09,0.87,10.91,0.00,0.00,0.00,-18.69,12.56,3.00,128.69,-2.25,3.88
129606,-1.42,0.51,11.44,0.00,0.00,0.00,-47.19,27.81,4.94,128.25,-3.94,0.94
129707,-1.15,-0.71,8.12,0.00,0.00,0.00,-33.44,21.38,-8.12,128.38,-6.69,-3.38
129807,-1.28,326.69,6.36,0.00,0.00,0.00,-20.81,-2.50,-13.75,129.19,-7.31,-6.44
129908,327.01,-1.23,6.82,0.00,0.00,0.00,-0.50,5.31,-1.88,129.88,-7.19,-7.19
130008,-1.21,-0.97,7.75,0.00,0.00,0.00,21.06,-6.06,4.81,129.69,-6.75,-5.56
130109,-2.09,0.19,7.33,0.00,0.00,0.00,39.62,-20.69,5.00,129.19,-5.69,-2.31
130209,-0.62,0.27,11.67,0.00,0.00,0.00,34.50,-31.06,-4.19,129.69,-2.69,1.69
130309,-0.44,0.39,11.73,0.00,0.00,0.00,20.38,2.12,2.12,129.81,-2.38,4.38
130408,-0.71,0.68,12.09,0.00,0.00,0.00,-9.81,3.62,-4.56,129.88,-2.00,5.06
130507,-0.53,0.11,11.87,0.00,0.00,0.00,-37.19,17.25,1.75,130.06,-2.50,2.69
130606,-0.89,-0.24,10.07,0.00,0.00,0.00,-56.31,35.38,1.69,129.62,-4.75,-1.88
130706,-1.52,-0.76,7.36,0.00,0.00,0.00,-36.00,18.25,-5.06,129.69,-7.56,-6.06
130806,-1.24,-1.51,6.42,0.00,0.00,0.00,-6.06,-6.88,-1.19,130.00,-8.19,-8.31
130907,-1.47,-1.12,6.77,0.00,0.00,0.00,18.56,-12.50,3.88,130.00,-7.50,-7.62
131007,-0.87,-1.33,7.40,0.00,0.00,0.00,42.12,-9.25,3.12,129.94,-6.44,-4.62
131108,-0.31,-0.17,10.19,0.00,0.00,0.00,55.31,-28.06,-2.19,129.88,-4.12,-0.12
DHT22: T=21.6 C | RH=66.0%
131208,-0.33,0.38,11.77,0.00,0.00,0.00,13.56,-44.12,1.25,130.06,-1.69,3.12
131309,-0.33,0.43,11.30,0.00,0.00,0.00,10.25,13.56,0.31,130.06,-1.19,4.38
131409,-0.20,0.26,13.26,0.00,0.00,0.00,1.31,5.50,-6.19,130.25,-1.06,4.38
131508,-0.90,0.68,11.26,0.00,0.00,0.00,-22.88,29.69,0.00,129.75,-2.62,2.38
131607,-0.80,-0.29,9.40,0.00,0.00,0.00,-36.56,27.81,5.88,129.62,-5.56,-0.31
131706,-1.26,-0.45,7.50,0.00,0.00,0.00,-27.56,15.94,0.38,129.38,-7.94,-3.56
131806,-1.35,-0.60,4.91,0.00,0.00,0.00,-14.75,2.50,-5.00,129.31,-9.06,-5.94
131906,-1.38,-1.02,7.01,0.00,0.00,0.00,20.62,-9.62,0.56,129.62,-8.75,-4.94
132006,-1.53,-0.27,8.24,0.00,0.00,0.00,33.00,-20.75,-0.44,129.81,-7.19,-1.88
132106,-0.89,0.13,9.95,0.00,0.00,0.00,36.69,-5.62,6.69,128.88,-3.00,0.12
132206,-0.15,-0.13,13.65,0.00,0.00,0.00,33.88,5.12,-5.75,128.75,-1.06,2.75
132306,-0.76,1.00,12.88,0.00,0.00,0.00,-3.62,-0.69,-1.50,129.00,-2.00,4.00
132406,-0.96,0.57,12.09,0.00,0.00,0.00,-23.94,10.44,-2.19,128.94,-3.31,2.94
132506,-1.18,-0.13,9.77,0.00,0.00,0.00,-45.44,11.69,-2.19,129.19,-5.56,-0.19
132606,-0.95,-0.77,7.15,0.00,0.00,0.00,-28.94,15.38,-7.31,129.62,-7.81,-3.81
132706,-1.52,-0.77,7.48,0.00,0.00,0.00,-20.44,6.00,5.12,129.69,-8.75,-6.00
132806,-1.98,-0.84,7.58,0.00,0.00,0.00,5.75,-6.06,-1.06,129.50,-8.75,-6.44
132906,-1.49,-0.74,8.44,0.00,0.00,0.00,22.44,-11.56,-3.69,129.69,-7.94,-4.75
133006,-0.84,-1.04,8.76,0.00,0.00,0.00,37.44,-28.06,-10.75,130.38,-6.50,-2.19
133106,-0.96,0.28,9.43,0.00,0.00,0.00,39.69,-12.88,4.44,130.75,-4.31,1.56
133206,-0.22,0.69,12.30,0.00,0.00,0.00,16.44,-12.00,-0.44,130.62,-2.38,4.75
133306,-0.30,0.56,12.73,0.00,0.00,0.00,-11.81,2.75,0.06,130.62,-1.81,5.00
133406,-0.61,0.34,11.10,0.00,0.00,0.00,-32.62,14.31,1.69,130.44,-2.56,2.38
133506,-0.66,-0.46,9.24,0.00,0.00,0.00,-40.56,15.69,4.69,130.00,-3.81,-1.06
133606,-1.04,-0.79,9.05,0.00,0.00,0.00,-34.12,18.19,7.19,129.25,-4.94,-4.38
DHT22: T=21.6 C | RH=66.0%
133706,-1.91,-0.48,7.48,0.00,0.00,0.00,-15.75,7.25,4.19,128.38,-6.69,-6.81
133806,-2.01,-0.89,7.27,0.00,0.00,0.00,-0.44,-1.38,-3.69,128.56,-7.94,-7.12
133906,-1.88,-1.02,7.39,0.00,0.00,0.00,22.88,-3.62,-1.31,129.06,-7.75,-5.94
134006,-1.38,-0.20,7.40,0.00,0.00,0.00,42.50,-11.00,5.25,129.06,-7.12,-2.00
134106,-0.08,0.03,10.35,0.00,0.00,0.00,41.00,-9.12,6.25,129.00,-5.31,2.69
134206,-1.25,1.03,12.40,0.00,0.00,0.00,21.25,-5.94,3.88,128.31,-3.88,5.44
134306,-0.60,0.56,12.90,0.00,0.00,0.00,-12.88,-0.56,2.69,128.25,-3.50,5.81
134406,-1.18,0.31,11.12,0.00,0.00,0.00,-46.62,6.50,-1.56,128.06,-3.88,3.00
134507,-0.94,-0.31,9.41,0.00,0.00,0.00,-40.50,17.88,-0.12,128.00,-5.12,-1.31
134607,-1.24,-1.03,7.39,0.00,0.00,0.00,-34.38,16.81,-0.69,127.88,-7.19,-5.31
134708,-1.76,-0.86,6.56,0.00,0.00,0.00,-6.38,7.69,-0.44,127.69,-8.31,-7.44
134808,-1.36,-1.31,6.80,0.00,0.00,0.00,22.62,-9.75,-5.88,127.94,-7.69,-6.81
134909,-1.47,-1.21,7.24,0.00,0.00,0.00,38.31,-10.06,0.25,128.19,-6.88,-3.88
135009,-1.14,-0.23,10.51,0.00,0.00,0.00,38.00,-19.38,-0.44,128.38,-5.06,-0.06
135109,-1.27,0.41,10.68,0.00,0.00,0.00,27.12,-11.38,-2.88,128.56,-3.94,3.00
135208,-0.05,-0.03,12.79,0.00,0.00,0.00,18.81,0.50,-3.31,129.31,-2.56,5.25
135307,-0.33,0.44,12.35,0.00,0.00,0.00,-7.88,-7.06,-0.38,129.44,-2.62,5.56
135406,-0.79,0.61,11.05,0.00,0.00,0.00,-25.12,6.81,4.12,129.12,-2.88,3.81
135506,-1.01,-0.22,10.54,0.00,0.00,0.00,-38.62,10.38,4.44,128.56,-3.94,0.75
135606,-1.24,-0.63,8.28,0.00,0.00,0.00,-37.06,21.94,-3.69,128.25,-5.75,-2.94
135707,-1.49,-0.91,7.62,0.00,0.00,0.00,-19.38,10.00,-4.25,128.44,-7.00,-5.75
135807,-1.36,-1.46,6.56,0.00,0.00,0.00,1.31,-5.06,-4.69,128.94,-7.44,-6.81
135908,-1.11,-0.92,6.54,0.00,0.00,0.00,30.06,-17.81,0.25,129.19,-6.44,-5.06
136008,-1.22,-0.09,8.67,0.00,0.00,0.00,40.12,-31.38,0.69,129.06,-4.69,-1.25
136109,-0.72,0.35,11.16,0.00,0.00,0.00,30.31,-25.50,-3.00,129.44,-2.31,2.19
DHT22: T=21.6 C | RH=66.0%
136209,-0.37,0.35,12.09,0.00,0.00,0.00,16.75,-9.94,-5.12,130.06,-1.56,4.50
136309,-0.32,0.40,11.69,0.00,0.00,0.00,-6.88,0.50,1.88,130.19,-1.50,4.38
136407,-0.43,0.36,11.50,0.00,0.00,0.00,-27.12,0.62,1.62,130.00,-1.62,2.44
1=~=~=~=~=~=~=~=~=~=~=~= PuTTY log 2026.05.12 16:45:50 =~=~=~=~=~=~=~=~=~=~=~=
137508,-0.80,-0.46,9.54,0.00,0.00,0.00,-36.38,8.12,4.44,130.12,2043.62,-0.88
137607,-0.72,-0.93,8.52,0.00,0.00,0.00,-17.75,25.12,0.12,129.88,-6.00,-3.81
137706,-1.84,-0.63,6.90,0.00,0.00,0.00,-24.12,15.12,-4.69,129.69,-7.94,-6.25
137806,-1.43,-1.40,5.65,0.00,0.00,0.00,12.-BNO055 ID: 0xA0
BNO055 detected
BNO055 set to NDOF mode
DHT22: T=20.8 C | RH=67.2%
timestamp_ms,ax,ay,az,mx,my,mz,gx,gy,gz,heading,roll,pitch
3609,-0.68,0.91,9.57,0.00,0.00,0.00,1.06,-0.94,-0.62,132.75,-3.12,3.81
DHT22: T=20.8 C | RH=67.2%
3708,-0.60,0.85,9.74,0.00,0.00,0.00,-2.25,-1.50,0.69,132.81,-3.06,3.81
3809,-0.70,0.88,9.51,0.00,0.00,0.00,-1.31,-0.12,1.00,132.75,-3.19,3.94
3908,-0.56,0.83,9.46,0.00,0.00,0.00,0.19,-9.81,-0.50,132.75,-3.19,4.00
4008,-0.59,0.89,9.38,0.00,0.00,0.00,0.69,0.81,0.38,132.81,-3.19,4.12
4106,-0.57,0.76,9.54,0.00,0.00,0.00,-0.56,-0.12,-0.31,132.81,-3.25,4.12
4206,-0.64,0.87,9.36,0.00,0.00,0.00,0.06,0.44,0.19,132.81,-3.31,4.12
4306,-0.65,0.84,9.57,0.00,0.00,0.00,-1.25,-0.38,0.38,132.81,-3.31,4.06
4407,-0.61,0.77,9.50,0.00,0.00,0.00,-0.44,-0.69,-0.75,132.81,-3.31,4.12
4507,-0.53,0.67,8.19,0.00,0.00,0.00,1.38,0.06,0.31,132.94,-3.25,4.12
4608,-0.65,0.98,9.69,0.00,0.00,0.00,0.19,1.19,-0.06,132.88,-3.25,4.38
4708,-0.68,0.97,8.22,0.00,0.00,0.00,3.00,-3.88,1.19,132.81,-3.31,4.56
4808,-0.55,0.78,9.50,0.00,0.00,0.00,2.31,0.00,0.94,132.81,-3.25,4.69
4909,-0.66,1.04,9.57,0.00,0.00,0.00,-0.69,0.00,0.06,132.81,-3.31,4.81
5009,-0.66,0.96,9.70,0.00,0.00,0.00,0.75,-0.88,-0.19,132.81,-3.31,4.81
5107,-0.56,0.85,9.75,0.00,0.00,0.00,-0.81,-2.56,0.25,132.88,-3.25,4.88
5207,-0.65,0.87,9.38,0.00,0.00,0.00,-2.19,0.06,0.00,132.88,-3.31,4.75
5306,-0.56,0.86,9.36,0.00,0.00,0.00,-0.69,-1.56,0.12,132.88,-3.25,4.56
5406,-0.56,0.78,9.76,0.00,0.00,0.00,-1.56,-1.31,-0.94,132.94,-3.12,4.50
5506,-0.59,0.78,9.73,0.00,0.00,0.00,-1.00,-1.56,-0.62,133.00,-3.12,4.44
5606,-0.56,0.87,9.75,0.00,0.00,0.00,-2.06,-0.81,-0.44,133.00,-3.06,4.31
5707,-0.56,0.60,9.41,0.00,0.00,0.00,-0.88,-1.69,0.69,133.00,-3.12,4.06
5808,-0.53,0.61,9.47,0.00,0.00,0.00,0.62,-0.06,-0.44,133.06,-3.06,4.00
5906,-0.58,0.81,9.59,0.00,0.00,0.00,-2.25,0.69,0.25,133.06,-3.00,3.94
6008,-0.58,0.76,9.61,0.00,0.00,0.00,-0.44,-0.75,-0.06,133.06,-3.06,3.88
6109,-0.58,0.71,9.52,0.00,0.00,0.00,-0.38,1.06,-0.06,133.06,-3.06,3.81
DHT22: T=20.8 C | RH=67.2%
6206,-0.54,0.62,9.44,0.00,0.00,0.00,3.50,2.75,-1.06,133.12,-3.12,3.94
6306,-0.48,0.57,9.08,0.00,0.00,0.00,5.56,1.56,-3.38,133.19,-3.25,4.56
6406,-0.58,0.85,10.27,0.00,0.00,0.00,-13.06,-8.38,-6.50,133.62,-2.75,4.12
6506,-0.67,1.25,9.13,0.00,0.00,0.00,5.50,-1.94,-9.62,134.38,-3.19,4.88
6606,-0.14,1.24,8.87,0.00,0.00,0.00,-16.38,-49.12,-45.06,137.12,-1.31,3.25
6706,0.37,-0.07,11.72,0.00,0.00,0.00,-10.38,-35.19,-56.88,142.94,4.19,0.50
6806,1.00,0.43,10.93,0.00,0.00,0.00,1.00,-27.50,-2.44,145.00,6.88,1.38
6906,1.32,-0.43,10.19,0.00,0.00,0.00,6.50,-18.44,-2.38,145.69,8.50,0.62
7006,1.78,0.01,9.52,0.00,0.00,0.00,-14.62,-6.69,-2.38,146.00,9.75,0.00
7106,1.63,-0.25,9.60,0.00,0.00,0.00,-29.25,19.56,1.44,146.56,9.81,-2.94
7206,2.04,-0.67,8.78,0.00,0.00,0.00,7.69,2.56,1.12,147.25,9.88,-1.50
7306,1.41,-0.32,9.43,0.00,0.00,0.00,-5.38,9.75,-11.94,147.69,7.38,-1.81
7406,1.22,-0.25,9.64,0.00,0.00,0.00,-2.31,6.88,1.56,148.00,6.88,-2.00
7506,1.23,-0.04,9.76,0.00,0.00,0.00,-3.44,-0.44,-3.00,147.94,7.88,-1.69
7606,0.65,-0.32,9.25,0.00,0.00,0.00,-4.06,10.94,0.38,148.56,5.56,-2.56
7706,0.53,-0.54,9.35,0.00,0.00,0.00,-11.69,31.06,-5.31,148.75,3.19,-3.38
7806,0.38,-0.45,9.46,0.00,0.00,0.00,0.25,1.31,12.75,147.88,1.81,-3.75
7907,0.37,-0.85,9.60,0.00,0.00,0.00,-3.25,13.75,-3.25,148.12,0.00,-4.31
8007,0.14,-0.59,9.44,0.00,0.00,0.00,-0.19,0.56,-0.06,148.12,0.62,-4.19
8108,0.04,-0.63,9.57,0.00,0.00,0.00,1.19,-4.56,-0.12,148.12,0.25,-4.31
8208,0.05,-0.65,9.58,0.00,0.00,0.00,-1.00,3.38,0.50,148.12,0.19,-4.31
8309,0.10,-0.68,9.56,0.00,0.00,0.00,-0.44,0.81,0.19,148.12,0.31,-4.31
8409,0.06,-0.64,9.56,0.00,0.00,0.00,0.19,-1.06,-0.06,148.12,0.25,-4.31
8509,0.05,-0.63,9.58,0.00,0.00,0.00,-0.06,0.19,-0.06,148.12,0.25,-4.31
8608,0.02,-0.64,9.56,0.00,0.00,0.00,-0.06,-0.12,0.00,148.12,0.25,-4.31
DHT22: T=20.8 C | RH=67.2%
8706,0.05,-0.66,9.53,0.00,0.00,0.00,-0.06,0.25,0.06,148.12,0.25,-4.25
8806,0.03,-0.67,9.54,0.00,0.00,0.00,-0.06,-0.06,-0.06,148.12,0.25,-4.25
8906,0.06,-0.65,9.56,0.00,0.00,0.00,-0.12,0.19,0.12,148.12,0.25,-4.25
9006,0.05,-0.68,9.58,0.00,0.00,0.00,-0.12,0.00,0.00,148.12,0.25,-4.25
9107,0.03,-0.67,9.57,0.00,0.00,0.00,-0.06,0.00,0.00,148.12,0.25,-4.25
9207,0.05,-0.66,9.51,0.00,0.00,0.00,0.00,-0.12,0.06,148.12,0.25,-4.25
9308,0.03,-0.66,9.57,0.00,0.00,0.00,0.19,-0.06,0.00,148.12,0.25,-4.25
9408,0.03,-0.68,9.53,0.00,0.00,0.00,0.06,-0.06,0.12,148.12,0.25,-4.25
9509,0.04,-0.63,9.58,0.00,0.00,0.00,-0.12,0.31,0.06,148.12,0.25,-4.25
9609,0.04,-0.64,9.54,0.00,0.00,0.00,0.12,0.00,-0.06,148.12,0.25,-4.25
9709,0.03,-0.68,9.53,0.00,0.00,0.00,0.00,0.00,0.00,148.12,0.25,-4.25
9808,0.05,-0.68,9.55,0.00,0.00,0.00,-0.06,0.25,0.06,148.12,0.25,-4.25
9907,0.03,-0.65,9.56,0.00,0.00,0.00,-0.06,0.06,0.00,148.12,0.25,-4.25
10006,0.04,-0.67,9.56,0.00,0.00,0.00,0.00,0.06,-0.12,148.12,0.25,-4.25
10106,0.04,-0.67,9.54,0.00,0.00,0.00,-0.12,-0.12,-0.12,148.12,0.25,-4.25
10206,0.02,-0.68,9.53,0.00,0.00,0.00,-0.06,-0.06,-0.06,148.12,0.25,-4.25
10307,0.03,-0.68,9.56,0.00,0.00,0.00,0.06,0.00,0.12,148.12,0.25,-4.25
10407,0.02,-0.68,9.57,0.00,0.00,0.00,0.06,-0.25,0.06,148.12,0.25,-4.25
10508,0.04,-0.67,9.56,0.00,0.00,0.00,0.12,0.06,-0.06,148.12,0.25,-4.25
10608,0.04,-0.68,9.55,0.00,0.00,0.00,-0.06,-0.06,-0.12,148.12,0.25,-4.25
10709,0.03,-0.66,9.58,0.00,0.00,0.00,0.00,0.19,-0.06,148.12,0.25,-4.25
10809,0.03,-0.68,9.58,0.00,0.00,0.00,0.00,0.00,-0.12,148.12,0.25,-4.25
10909,0.05,-0.67,9.55,0.00,0.00,0.00,0.06,0.00,-8.12,148.12,0.25,-4.25
11008,0.03,-0.67,9.57,0.00,0.00,0.00,-0.06,-0.06,0.06,148.12,0.25,-4.25
11107,0.03,-0.64,9.56,0.00,0.00,0.00,0.19,-0.19,0.06,148.12,0.25,-4.25
DHT22: T=20.8 C | RH=67.2%
11206,0.02,-0.67,9.58,0.00,0.00,0.00,0.12,0.12,0.00,148.12,0.25,-4.25
11306,0.03,-0.64,9.56,0.00,0.00,0.00,0.00,0.12,0.00,148.12,0.25,-4.25
11406,0.03,-0.65,9.57,0.00,0.00,0.00,-0.25,0.12,-0.06,148.12,0.25,-4.25
11507,0.03,-0.65,9.55,0.00,0.00,0.00,0.06,-0.19,-0.12,148.12,0.25,-4.25
11607,0.05,-0.68,9.57,0.00,0.00,0.00,0.00,0.19,-0.06,148.12,0.25,-4.25
11708,0.03,-0.67,9.56,0.00,0.00,0.00,0.12,-0.12,0.06,148.12,0.25,-4.25
11808,0.01,-0.68,9.58,0.00,0.00,0.00,0.12,-0.06,-0.12,148.12,0.25,-4.25
11909,0.03,-0.66,9.57,0.00,0.00,0.00,0.19,0.00,0.19,148.12,0.25,-4.25
12009,0.03,-1.91,9.60,0.00,0.00,0.00,0.06,-0.25,0.00,148.12,0.25,-4.25
12109,0.03,-0.66,9.55,0.00,0.00,0.00,0.00,0.00,0.06,148.12,0.25,-4.25
12208,0.04,-0.68,9.58,0.00,0.00,0.00,0.12,0.12,0.12,148.12,0.25,-4.25
12307,0.04,-0.67,9.54,0.00,0.00,0.00,0.00,0.12,-0.25,148.12,0.25,-4.25
12406,0.03,-0.66,9.56,0.00,0.00,0.00,0.06,-0.12,-0.12,148.12,0.25,-4.25
12506,0.05,-0.66,9.55,0.00,0.00,0.00,0.06,-0.06,-0.06,148.12,0.25,-4.25
12606,0.04,-0.67,9.55,0.00,0.00,0.00,-0.06,0.25,-0.06,148.12,0.25,-4.25
12707,0.02,-0.65,9.57,0.00,0.00,0.00,-0.12,0.38,-0.06,148.12,0.25,-4.25
12807,0.06,-0.68,9.54,0.00,0.00,0.00,0.12,-0.25,0.19,148.12,0.25,-4.25
12908,0.04,-0.66,9.52,0.00,0.00,0.00,0.12,0.06,0.00,148.12,0.25,-4.25
13008,0.04,-0.68,9.60,0.00,0.00,0.00,0.00,-0.12,-0.06,148.12,0.25,-4.25
13108,0.04,-0.65,9.60,0.00,0.00,0.00,0.12,-0.12,-0.12,148.12,0.25,-4.25
13207,0.03,-0.68,9.55,0.00,0.00,0.00,0.06,0.00,0.06,148.12,0.25,-4.25
13306,0.01,-0.68,9.55,0.00,0.00,0.00,-0.06,0.44,-0.06,148.12,0.25,-4.25
13406,0.03,-0.65,9.56,0.00,0.00,0.00,0.06,-0.19,0.06,148.12,0.25,-4.25
13506,0.04,-0.66,9.54,0.00,0.00,0.00,0.00,-0.12,0.06,148.12,0.25,-4.25
13606,0.03,-0.67,9.55,0.00,0.00,0.00,-0.12,0.00,-0.06,148.12,0.25,-4.25
DHT22: T=20.8 C | RH=67.2%
13706,0.04,-0.65,9.57,0.00,0.00,0.00,-0.06,0.06,0.00,148.12,0.25,-4.25
13807,0.04,-0.68,9.57,0.00,0.00,0.00,0.19,-0.12,0.12,148.12,0.25,-4.25
13907,0.02,327.02,9.58,0.00,0.00,0.00,0.06,0.31,0.00,148.12,0.25,-4.25
14008,0.04,-0.65,9.58,0.00,0.00,0.00,0.06,0.12,0.06,148.12,0.25,-4.25
14108,0.05,-0.68,9.55,0.00,0.00,0.00,-0.06,0.00,-0.06,148.12,0.25,-4.25
14208,0.03,-0.68,9.58,0.00,0.00,0.00,-0.06,0.00,0.00,148.12,0.25,-4.25
14309,0.03,-0.69,9.57,0.00,0.00,0.00,-0.19,0.06,-0.06,148.12,0.25,-4.25
14409,0.05,-0.66,9.56,0.00,0.00,0.00,-0.06,-0.25,-0.06,148.12,0.25,-4.25
14509,0.03,-0.68,9.54,0.00,0.00,0.00,-0.12,-0.19,-0.06,148.12,0.25,-4.25
14608,0.03,-0.68,9.56,0.00,0.00,0.00,0.12,0.12,0.00,148.12,0.25,-4.25
14707,0.03,-0.66,9.58,0.00,0.00,0.00,-0.06,-0.06,0.00,148.12,0.25,-4.25
14806,0.05,-0.67,9.57,0.00,0.00,0.00,-0.06,0.12,0.00,148.12,0.25,-4.25
14906,0.03,-0.67,9.54,0.00,0.00,0.00,-0.06,0.00,0.06,148.12,0.25,-4.25
15006,0.04,-0.64,9.55,0.00,0.00,0.00,0.06,-0.12,-0.06,148.12,0.25,-4.25
15107,0.03,-0.65,9.55,0.00,0.00,0.00,-0.06,-0.12,0.06,148.12,0.25,-4.25
15207,0.05,-0.66,9.55,0.00,0.00,0.00,-0.12,0.31,0.12,148.12,0.25,-4.25
15308,0.03,-0.66,9.55,0.00,0.00,0.00,-0.06,0.25,-0.12,148.12,0.25,-4.25
15408,0.03,-0.67,9.57,0.00,0.00,0.00,-0.06,0.00,-0.06,148.12,0.25,-4.25
15509,0.02,-0.64,9.53,0.00,0.00,0.00,0.00,-0.31,-0.06,148.12,0.25,-4.25
15609,0.02,-0.65,9.56,0.00,0.00,0.00,0.00,0.00,-0.12,148.12,0.25,-4.25
15709,0.03,-0.68,9.55,0.00,0.00,0.00,-0.06,0.19,0.06,148.12,0.25,-4.25
15808,0.04,-0.68,9.55,0.00,0.00,0.00,-0.06,0.25,0.06,148.12,0.25,-4.25
15907,0.03,-0.66,9.54,0.00,0.00,0.00,-0.06,0.00,-0.06,148.12,0.25,-4.25
16006,0.04,-0.67,9.54,0.00,0.00,0.00,0.06,-0.19,-0.12,148.12,0.25,-4.25
16106,0.04,-0.66,9.57,0.00,0.00,0.00,0.06,-0.12,-0.12,148.12,0.25,-4.25
DHT22: T=20.8 C | RH=67.2%
16206,0.04,-0.68,9.55,0.00,0.00,0.00,0.00,0.06,-0.12,148.12,0.25,-4.25
16307,0.04,-0.68,9.55,0.00,0.00,0.00,0.12,0.12,-0.06,148.12,0.25,-4.25
16407,0.04,-0.67,9.52,0.00,0.00,0.00,0.00,0.00,0.00,148.12,0.25,-4.25
16508,0.01,-0.66,9.56,0.00,0.00,0.00,0.06,-0.12,0.00,148.12,0.25,-4.25
16608,0.02,-0.66,9.58,0.00,0.00,0.00,0.00,0.06,0.06,148.12,0.25,-4.25
16709,0.04,-0.69,9.56,0.00,0.00,0.00,0.00,0.12,-0.06,148.12,0.25,-4.25
16809,0.04,-0.65,9.58,0.00,0.00,0.00,-0.12,0.00,-0.12,148.12,0.25,-4.25
16909,0.05,-0.68,9.56,0.00,0.00,0.00,0.06,-0.25,-0.06,148.12,0.25,-4.25
17008,0.06,-0.68,9.56,0.00,0.00,0.00,0.00,0.00,-0.06,148.12,0.25,-4.25
17107,0.04,-0.66,9.56,0.00,0.00,0.00,-0.06,0.00,0.00,148.12,0.25,-4.25
17206,0.05,-0.67,9.57,0.00,0.00,0.00,-0.19,0.12,0.00,148.12,0.25,-4.25
17306,0.04,-0.66,9.55,0.00,0.00,0.00,0.00,0.00,-0.06,148.12,0.25,-4.25
17406,0.05,-0.64,9.57,0.00,0.00,0.00,0.06,-0.06,-0.06,148.12,0.25,-4.25
17507,0.03,-0.64,9.60,0.00,0.00,0.00,0.06,0.12,0.00,148.12,0.25,-4.25
17607,0.00,-0.68,9.58,0.00,0.00,0.00,0.00,0.19,0.00,148.12,0.25,-4.25
17708,0.02,-0.68,9.56,0.00,0.00,0.00,0.00,0.19,-0.12,148.12,0.25,-4.25
17808,0.03,-0.68,9.57,0.00,0.00,0.00,-0.06,0.12,0.00,148.12,0.25,-4.25
17909,0.02,-1.94,9.58,0.00,0.00,0.00,0.06,-0.25,0.00,148.12,0.25,-4.25
18009,0.04,-0.67,9.55,0.00,0.00,0.00,0.06,0.06,-0.06,148.12,0.25,-4.25
18108,0.03,-0.65,9.57,0.00,0.00,0.00,0.12,0.00,0.06,148.12,0.25,-4.25
18207,0.03,-0.66,9.56,0.00,0.00,0.00,-0.06,-0.12,0.00,148.12,0.25,-4.25
18306,0.03,-0.66,9.58,0.00,0.00,0.00,-0.06,0.00,-0.06,148.12,0.25,-4.25
18406,0.04,-0.69,9.58,0.00,0.00,0.00,0.00,0.12,-0.06,148.12,0.25,-4.25
18506,0.02,-0.65,9.58,0.00,0.00,0.00,-0.12,0.06,0.12,148.12,0.25,-4.25
18607,0.03,-0.67,9.56,0.00,0.00,0.00,0.06,0.06,-0.06,148.12,0.25,-4.25
DHT22: T=20.8 C | RH=67.2%
18707,0.03,327.03,9.54,0.00,0.00,0.00,0.06,0.06,0.06,148.12,0.25,-4.25
18808,0.03,-0.66,9.56,0.00,0.00,0.00,0.06,-0.31,-0.12,148.12,0.25,-4.25
18908,0.03,-0.66,9.58,0.00,0.00,0.00,0.12,-0.56,0.00,148.12,0.19,-4.25
19008,0.04,-0.66,9.57,0.00,0.00,0.00,-0.12,0.44,0.06,148.12,0.19,-4.25
19108,0.06,-0.65,9.58,0.00,0.00,0.00,-0.12,0.50,0.06,148.12,0.19,-4.25
19207,0.03,-0.64,9.56,0.00,0.00,0.00,0.06,0.12,0.06,148.12,0.19,-4.25
19306,0.04,-0.65,9.56,0.00,0.00,0.00,0.12,-0.19,0.00,148.12,0.19,-4.25
19406,0.03,-0.67,9.58,0.00,0.00,0.00,0.06,-0.31,0.12,148.12,0.19,-4.25
19506,0.04,-0.67,9.56,0.00,0.00,0.00,0.06,-0.06,0.12,148.12,0.19,-4.25
19606,0.01,-0.68,9.58,0.00,0.00,0.00,-0.31,0.62,0.06,148.12,0.19,-4.25
19706,0.02,-0.64,9.57,0.00,0.00,0.00,-0.12,0.38,0.00,148.12,0.19,-4.25
19807,0.03,-0.64,9.55,0.00,0.00,0.00,-0.06,-0.12,0.06,148.12,0.19,-4.25
19907,0.04,-0.68,9.55,0.00,0.00,0.00,0.12,-0.44,0.00,148.12,0.19,-4.25
20008,0.04,-0.67,9.56,0.00,0.00,0.00,0.00,0.06,0.00,148.12,0.19,-4.25
20108,0.02,-0.65,9.57,0.00,0.00,0.00,0.00,0.00,0.06,148.12,0.19,-4.25
20209,0.04,-0.67,9.55,0.00,0.00,0.00,0.06,0.12,0.00,148.12,0.19,-4.25
20309,0.03,-0.66,9.55,0.00,0.00,0.00,0.19,-0.12,-0.12,148.12,0.19,-4.25
20409,0.03,-0.68,9.54,0.00,0.00,0.00,0.00,-0.31,0.00,148.12,0.19,-4.25
20508,0.02,-0.65,9.53,0.00,0.00,0.00,-0.06,-0.31,0.00,148.12,0.19,-4.25
20607,0.05,-0.65,9.58,0.00,0.00,0.00,0.00,0.00,-0.06,148.12,0.19,-4.25
20706,0.02,-0.67,9.58,0.00,0.00,0.00,0.06,-0.12,0.00,148.12,0.19,-4.25
20806,0.04,-0.65,9.54,0.00,0.00,0.00,0.00,-0.19,-0.06,148.12,0.19,-4.25
20906,0.03,-0.67,9.55,0.00,0.00,0.00,0.06,0.06,0.06,148.12,0.19,-4.25
21007,0.05,-0.68,9.56,0.00,0.00,0.00,-0.06,0.06,0.06,148.12,0.19,-4.25
21107,0.03,-0.67,9.57,0.00,0.00,0.00,-0.06,0.38,0.00,148.12,0.19,-4.25
DHT22: T=20.8 C | RH=67.2%
21208,0.03,-0.67,9.53,0.00,0.00,0.00,-0.12,0.31,0.12,148.12,0.19,-4.25
21308,0.04,-0.64,9.53,0.00,0.00,0.00,0.06,-0.69,0.06,148.12,0.19,-4.25
21409,0.03,-0.66,9.52,0.00,0.00,0.00,-0.06,-0.06,0.00,148.12,0.19,-4.25
21509,0.04,-0.66,9.56,0.00,0.00,0.00,-0.06,0.38,0.06,148.12,0.19,-4.25
21609,0.05,-0.64,9.55,0.00,0.00,0.00,-0.19,0.56,-0.06,148.12,0.19,-4.25
21708,0.04,-0.67,9.52,0.00,0.00,0.00,0.06,0.00,0.00,148.12,0.19,-4.25
21806,0.05,-0.65,9.51,0.00,0.00,0.00,0.06,-0.50,-0.06,148.12,0.19,-4.25
21906,0.03,-0.66,9.52,0.00,0.00,0.00,0.00,-0.06,0.06,148.12,0.19,-4.25
22006,0.04,-0.65,9.56,0.00,0.00,0.00,0.06,-0.12,0.06,148.12,0.19,-4.25
22107,0.01,-0.62,9.58,0.00,0.00,0.00,0.00,-0.19,-0.06,148.12,0.19,-4.25
22207,0.02,-0.66,9.53,0.00,0.00,0.00,-0.06,0.06,-0.06,148.12,0.19,-4.25
22308,0.03,-0.67,9.58,0.00,0.00,0.00,0.06,0.00,0.06,148.12,0.19,-4.25
22408,0.05,-0.65,9.58,0.00,0.00,0.00,-0.06,0.25,0.19,148.12,0.19,-4.25
22508,0.03,-0.67,9.55,0.00,0.00,0.00,0.06,-0.19,0.00,148.12,0.19,-4.25
22609,0.03,-0.65,9.54,0.00,0.00,0.00,0.06,-0.19,0.00,148.12,0.19,-4.25
22709,0.03,-0.69,9.58,0.00,0.00,0.00,0.00,0.06,0.00,148.12,0.19,-4.25
22808,0.05,-0.65,9.56,0.00,0.00,0.00,-0.12,0.75,0.12,148.12,0.12,-4.25
22907,0.03,-0.66,9.59,0.00,0.00,0.00,0.12,-0.12,-0.06,148.12,0.12,-4.25
23006,0.03,-0.64,9.56,0.00,0.00,0.00,0.25,-0.88,-0.06,148.12,0.12,-4.25
23106,0.05,-0.67,9.57,0.00,0.00,0.00,0.06,-0.19,0.00,148.12,0.12,-4.25
23206,0.06,-0.69,9.58,0.00,0.00,0.00,-0.31,0.75,0.19,148.12,0.12,-4.25
23307,0.04,-0.67,9.55,0.00,0.00,0.00,-0.19,0.75,0.06,148.12,0.12,-4.25
23407,0.04,-0.66,9.53,0.00,0.00,0.00,0.12,-0.75,0.06,148.12,0.12,-4.25
23507,0.00,-0.66,9.55,0.00,0.00,0.00,0.12,-0.50,-0.06,148.12,0.12,-4.25
23608,0.04,-0.65,9.60,0.00,0.00,0.00,-0.19,0.94,0.06,148.12,0.12,-4.25
DHT22: T=20.8 C | RH=67.2%
23708,0.03,-0.68,9.57,0.00,0.00,0.00,-0.25,0.50,0.06,148.12,0.12,-4.25
23809,0.02,-0.66,9.56,0.00,0.00,0.00,-0.12,0.06,0.12,148.12,0.12,-4.25
23909,0.03,-0.66,9.54,0.00,0.00,0.00,-0.06,0.00,-0.06,148.12,0.12,-4.25
24008,0.05,-0.65,9.58,0.00,0.00,0.00,0.19,-0.88,0.06,148.12,0.19,-4.25
24107,0.02,-0.65,9.58,0.00,0.00,0.00,0.19,-0.75,-0.06,148.12,0.19,-4.25
24206,0.02,-0.67,9.55,0.00,0.00,0.00,0.06,0.19,-0.06,148.12,0.19,-4.25
24306,0.02,-0.68,9.57,0.00,0.00,0.00,-0.06,0.19,0.12,148.12,0.19,-4.25
24406,0.03,-0.65,9.55,0.00,0.00,0.00,0.06,-0.31,0.06,148.12,0.19,-4.25
24507,0.03,-0.64,9.56,0.00,0.00,0.00,0.12,-0.44,0.06,148.12,0.12,-4.25
24607,0.03,-0.65,9.55,0.00,0.00,0.00,0.06,-0.31,0.00,148.12,0.12,-4.25
24708,0.04,-0.68,9.56,0.00,0.00,0.00,-0.12,0.19,0.06,148.12,0.12,-4.25
24808,0.02,-0.66,9.55,0.00,0.00,0.00,-0.12,0.38,0.00,148.12,0.12,-4.25
24908,0.02,-0.65,9.57,0.00,0.00,0.00,-0.06,-0.12,0.12,148.12,0.12,-4.25
25007,0.03,-0.66,9.54,0.00,0.00,0.00,0.06,0.44,0.06,148.12,0.12,-4.25
25106,0.03,-0.67,9.58,0.00,0.00,0.00,-0.12,0.44,0.19,148.12,0.12,-4.25
25206,0.02,-0.68,9.58,0.00,0.00,0.00,0.00,0.00,0.06,148.12,0.12,-4.25
25306,0.02,-0.69,9.54,0.00,0.00,0.00,0.00,0.44,-0.06,148.12,0.12,-4.25
25406,0.02,-0.68,9.59,0.00,0.00,0.00,-0.06,0.00,0.00,148.12,0.12,-4.25
25506,0.04,-0.66,9.55,0.00,0.00,0.00,-0.12,0.19,-0.06,148.12,0.12,-4.25
25607,0.02,-0.66,9.55,0.00,0.00,0.00,0.06,-0.12,-0.06,148.12,0.12,-4.25
25707,0.03,-0.67,9.58,0.00,0.00,0.00,0.12,-0.19,0.00,148.12,0.12,-4.25
25808,0.02,-0.67,9.57,0.00,0.00,0.00,0.06,-0.19,-0.06,148.12,0.12,-4.25
25908,0.03,-0.67,9.55,0.00,0.00,0.00,-0.06,0.19,0.00,148.12,0.12,-4.25
26008,0.04,-0.67,9.52,0.00,0.00,0.00,0.00,0.38,-0.06,148.12,0.12,-4.25
26109,0.02,-0.67,9.57,0.00,0.00,0.00,0.12,-0.25,0.00,148.12,0.12,-4.25
DHT22: T=20.8 C | RH=67.2%
26209,0.01,-0.68,9.56,0.00,0.00,0.00,0.12,-0.31,0.00,148.12,0.12,-4.25
26309,0.03,-0.66,9.55,0.00,0.00,0.00,0.06,-0.06,0.06,148.12,0.12,-4.25
26407,0.04,-0.67,9.56,0.00,0.00,0.00,0.00,0.06,0.00,148.12,0.12,-4.25
26506,0.03,-0.69,9.55,0.00,0.00,0.00,0.00,0.19,-0.12,148.12,0.12,-4.25
26606,0.02,-0.66,9.52,0.00,0.00,0.00,0.12,-0.31,0.06,148.12,0.12,-4.25
26706,0.03,-0.65,9.57,0.00,0.00,0.00,0.00,-0.31,-0.12,148.12,0.12,-4.25
26807,0.04,-0.68,9.54,0.00,0.00,0.00,-0.06,-0.12,0.06,148.12,0.12,-4.25
26907,0.03,-0.67,9.53,0.00,0.00,0.00,-0.12,0.12,0.12,148.12,0.12,-4.25
27007,0.02,-0.67,9.55,0.00,0.00,0.00,-0.12,-0.12,0.00,148.12,0.12,-4.25
27108,0.04,-0.65,9.55,0.00,0.00,0.00,-0.19,0.06,0.12,148.12,0.12,-4.25
27208,0.04,-0.63,9.55,0.00,0.00,0.00,-0.06,0.06,0.00,148.12,0.12,-4.25
27309,0.02,-0.68,9.54,0.00,0.00,0.00,-0.06,0.38,0.00,148.12,0.12,-4.25
27409,0.03,-0.64,9.54,0.00,0.00,0.00,0.06,-0.06,0.06,148.12,0.12,-4.25
27508,0.03,-0.68,9.54,0.00,0.00,0.00,0.06,-0.50,0.00,148.12,0.12,-4.25
27607,0.01,-0.67,9.52,0.00,0.00,0.00,0.06,0.44,-0.06,148.12,0.12,-4.25
27706,0.03,-0.68,9.58,0.00,0.00,0.00,-0.12,0.69,0.06,148.12,0.12,-4.25
27806,0.04,-0.67,9.54,0.00,0.00,0.00,-0.12,0.56,0.00,148.12,0.12,-4.25
27906,0.02,-0.65,9.51,0.00,0.00,0.00,0.06,0.06,-0.06,148.12,0.12,-4.25
28007,0.03,-0.66,9.56,0.00,0.00,0.00,0.12,-0.38,-0.12,148.12,0.12,-4.25
28107,0.03,-0.68,9.56,0.00,0.00,0.00,0.06,-0.06,0.06,148.12,0.12,-4.25
2